"Time (s)","Acceleration x (m/s^2)","Acceleration y (m/s^2)","Acceleration z (m/s^2)","Absolute acceleration (m/s^2)"
3.382249997E-3,5.987548828E-4,2.640958099E0,8.390352173E0,8.796173579E0
1.332225000E-2,1.669029236E-1,2.575693817E0,8.221952362E0,8.617572504E0
2.326325000E-2,3.760180664E-1,2.611469421E0,8.073012085E0,8.493214129E0
3.320325000E-2,5.354365540E-1,2.575843506E0,8.081993408E0,8.499428188E0
4.314325000E-2,6.042933655E-1,2.425256653E0,8.267607422E0,8.637150733E0
5.308324999E-2,6.866221619E-1,2.219584351E0,8.668324127E0,8.974288153E0
6.302425000E-2,8.864566040E-1,1.973047028E0,9.438173218E0,9.682862881E0
7.296424999E-2,1.476828918E0,1.735491028E0,1.074375824E1,1.098277260E1
8.290425000E-2,1.794169006E0,1.716480560E0,1.140852585E1,1.167560748E1
9.284524999E-2,1.868713989E0,1.758992157E0,1.098266144E1,1.127851930E1
1.027852500E-1,1.715881805E0,1.926643524E0,1.035711227E1,1.067361140E1
1.127252500E-1,1.248553619E0,2.028431854E0,9.761800232E0,1.004819216E1
1.226652500E-1,9.410929871E-1,1.903741150E0,9.354347534E0,9.592377399E0
1.326062500E-1,1.166374512E0,1.767225037E0,8.846603394E0,9.096477639E0
1.425462500E-1,1.599423981E0,1.696422272E0,8.345744934E0,8.665302309E0
1.524862500E-1,1.803749084E0,1.621727600E0,7.961943054E0,8.323223436E0
1.624272500E-1,1.969005432E0,1.248403931E0,7.901468811E0,8.238246424E0
1.723672500E-1,2.677182770E0,6.060896301E-1,8.082442474E0,8.535837895E0
1.823072500E-1,2.706222382E0,6.307882690E-1,8.156239014E0,8.616598416E0
1.922482500E-1,2.703078918E0,1.021924896E0,7.652835846E0,8.180272772E0
2.021882500E-1,2.656376038E0,1.628463593E0,7.665110321E0,8.274185371E0
2.121282500E-1,3.771107941E0,1.447040863E0,8.566685486E0,9.471181688E0
2.220682500E-1,5.493725739E0,3.649411011E-1,9.397906952E0,1.089196307E1
2.320092500E-1,5.529052277E0,-4.135899353E-1,9.363478546E0,1.088192107E1
2.419492500E-1,4.212989044E0,-7.529342651E-1,8.557704163E0,9.568201881E0
2.518892500E-1,3.518732758E0,-8.472381592E-1,8.202043762E0,8.965088655E0
2.618302500E-1,3.352877655E0,-8.939410400E-1,8.168962555E0,8.875408068E0
2.717702500E-1,3.489244080E0,-1.062041473E0,8.165968781E0,8.943478208E0
2.817100000E-1,3.817062378E0,-1.563049622E0,8.042924652E0,9.038900723E0
2.916500000E-1,4.093387756E0,-1.395547943E0,8.986113281E0,9.972643044E0
3.015910000E-1,3.747906189E0,-1.696422272E0,8.083190918E0,9.069874571E0
3.115310000E-1,4.068240051E0,-2.459834747E0,6.960675201E0,8.429256394E0
3.214710000E-1,3.728446655E0,-2.600093079E0,5.587131500E0,7.202627082E0
3.314120000E-1,3.517684937E0,-2.502196655E0,4.763993225E0,6.428897795E0
3.413520000E-1,3.798800354E0,-2.842289429E0,4.666545868E0,6.654783517E0
3.512920000E-1,4.142485657E0,-3.794309692E0,4.937482452E0,7.479017745E0
3.612330000E-1,4.484674072E0,-4.619094543E0,5.425617371E0,8.419362196E0
3.711730000E-1,5.155578918E0,-5.136568451E0,6.008804626E0,9.437693705E0
3.811130000E-1,5.861810303E0,-4.740342407E0,6.573430481E0,1.000208251E1
3.910530000E-1,7.003635864E0,-4.315675507E0,6.245612183E0,1.032877737E1
4.009940000E-1,8.146658936E0,-3.667074280E0,6.094725952E0,1.081485876E1
4.109340000E-1,9.239536285E0,-2.805166626E0,6.304739227E0,1.153203049E1
4.208740000E-1,9.671388245E0,-2.371967468E0,6.241271210E0,1.175225283E1
4.308150000E-1,9.836494904E0,-2.258952484E0,5.557792511E0,1.152165595E1
4.407550000E-1,1.036235138E1,-2.392774200E0,4.615651703E0,1.159344363E1
4.506950000E-1,1.083237396E1,-2.203268280E0,4.453987885E0,1.191774831E1
4.606350000E-1,1.217927307E1,-1.749861145E0,4.434079285E0,1.307890537E1
4.705760000E-1,1.396191605E1,-8.602610779E-1,4.714146881E0,1.476137967E1
4.805160000E-1,1.435634583E1,3.936813354E-2,4.902006226E0,1.517023007E1
4.904560000E-1,1.436742279E1,3.224295044E-1,4.290827179E0,1.499793307E1
5.003970000E-1,1.438089478E1,4.339476013E-1,3.478167114E0,1.480189486E1
5.103370000E-1,1.385399048E1,4.969665527E-2,2.785557404E0,1.413134289E1
5.202770000E-1,1.347617615E1,-4.327500916E-1,2.584974518E0,1.372868127E1
5.302170000E-1,1.313683182E1,-3.766168213E-1,2.236798553E0,1.333122118E1
5.401580000E-1,1.231234634E1,-3.647914124E-1,5.059478760E-1,1.232813565E1
5.500980000E-1,1.209245361E1,-3.185375977E-1,-6.909631348E-1,1.211636623E1
5.600380000E-1,1.278012360E1,-1.797761536E-1,-2.369273071E0,1.299912818E1
5.699790000E-1,1.242236755E1,1.646276550E0,-2.958447876E0,1.287547498E1
5.799190000E-1,1.263432678E1,2.763403473E0,-2.756966858E0,1.322359551E1
5.898590000E-1,1.239931549E1,2.777623901E0,-2.420765991E0,1.293515857E1
5.998000000E-1,1.250200195E1,2.515518951E0,-1.817969513E0,1.288149454E1
6.097400000E-1,1.246353195E1,1.689536591E0,-2.397564240E0,1.280400238E1
6.196800000E-1,1.174487640E1,1.033301239E0,-2.794538727E0,1.211690059E1
6.296200000E-1,1.065020279E1,2.860551453E-1,-3.243305511E0,1.113677142E1
6.395610000E-1,8.881331177E0,-9.669891357E-2,-2.159858551E0,9.140699268E0
6.495010000E-1,7.745193787E0,-8.023315430E-1,-1.151555328E0,7.871330407E0
6.594410000E-1,6.528224487E0,-2.171833649E0,-7.494914246E-1,6.920716274E0
6.693820000E-1,5.599405975E0,-2.738704834E0,-2.978805542E-2,6.233356943E0
6.793220000E-1,5.801186371E0,-3.009940796E0,4.567002869E-1,6.551494643E0
6.892620000E-1,6.098168793E0,-3.743116150E0,5.993536377E-1,7.180376447E0
6.992020000E-1,6.325845337E0,-4.231999512E0,2.797682190E-1,7.616062588E0
7.091430000E-1,7.243137817E0,-4.413721619E0,-3.755690002E-1,8.490290692E0
7.190830000E-1,7.980205078E0,-4.223766632E0,-6.018983459E-1,9.049097152E0
7.290230000E-1,7.936046906E0,-3.532504120E0,-6.295907593E-1,8.709524118E0
7.389640000E-1,6.389612732E0,-2.480042725E0,-1.660646667E0,7.052340756E0
7.489040000E-1,8.911568298E0,-2.056723022E-1,-6.021977234E-1,8.934259495E0
7.588440000E-1,1.491707977E1,-6.996450806E-1,2.301913147E0,1.510985031E1
7.687850000E-1,1.228704895E1,-2.513273621E-1,5.905070343E0,1.363468346E1
7.787250000E-1,1.254346573E1,9.229806519E-1,6.814279633E0,1.430471365E1
7.886650000E-1,1.359068802E1,5.051994324E-1,6.385271759E0,1.502443752E1
7.986050000E-1,1.206700653E1,-1.076261902E-1,5.554499359E0,1.328445306E1
8.085460000E-1,1.176762909E1,-9.933343506E-1,4.813540192E0,1.275280270E1
8.184860000E-1,1.120764359E1,-1.237027588E0,2.710713043E0,1.159695983E1
8.284260000E-1,1.089688980E1,-1.545835419E0,3.562591553E-1,1.101175440E1
8.383670000E-1,1.069765411E1,-1.978136444E0,-1.130299530E0,1.093756848E1
8.483070000E-1,1.060933777E1,-1.486109619E0,-4.552033997E-1,1.072258270E1
8.582470000E-1,9.721084900E0,-1.265917511E0,5.777984619E-1,9.820177689E0
8.681870000E-1,8.078550568E0,-2.700234833E0,2.357597351E-1,8.521140187E0
8.781280000E-1,6.977889404E0,-3.123554535E0,-4.650828552E-1,7.659232046E0
8.880680000E-1,7.173831940E0,-2.386636963E0,-1.023571472E0,7.629390490E0
8.980080000E-1,8.047565002E0,-1.115031281E0,-1.236728210E0,8.218034673E0
9.079490000E-1,9.247469788E0,-1.466949463E-2,-1.449435883E0,9.360383381E0
9.178890000E-1,1.097442856E1,-4.191284180E-3,-1.193168793E0,1.103910103E1
9.278290000E-1,1.277398636E1,-3.785627747E-1,-3.580554199E-1,1.278460953E1
9.377690000E-1,1.426219162E1,4.032614136E-1,-1.143621826E-1,1.426834988E1
9.477100000E-1,1.459390182E1,1.674418030E0,-3.094065857E-1,1.469290232E1
9.576500000E-1,1.414079407E1,2.414479065E0,4.016148376E-1,1.435106479E1
9.675900000E-1,1.464389786E1,1.251846771E0,1.909279633E0,1.482080340E1
9.775310000E-1,1.408121796E1,1.026265869E0,4.004921722E0,1.467560284E1
9.874710000E-1,1.351853806E1,1.210981750E0,4.322112122E0,1.424422694E1
9.974110000E-1,1.283550842E1,9.018745422E-1,2.539918213E0,1.311544276E1
1.007352000E0,1.115091156E1,5.119354248E-1,1.255588989E0,1.123304991E1
1.017292000E0,8.803642731E0,-5.442681885E-1,1.611099701E0,8.966381402E0
1.027232000E0,6.157146149E0,-1.545685730E0,3.173101501E0,7.097053347E0
1.037172000E0,5.227579193E0,-1.640139313E0,3.657194824E0,6.587314716E0
1.047113000E0,3.873495026E0,-2.189945984E0,2.873724060E0,5.296991325E0
1.057053000E0,1.822909241E0,-2.868784332E0,2.232457581E0,4.066545032E0
1.066993000E0,2.938389587E-1,-1.977687378E0,-8.821156311E-1,2.185341320E0
1.076934000E0,-1.582359467E0,-7.746391296E-1,-3.059338074E0,3.530364954E0
1.086874000E0,-3.037184143E-1,5.924679565E-1,-2.849923553E0,2.926658063E0
1.096814000E0,3.567231903E0,-7.469467163E-2,-2.928210754E0,4.615749231E0
1.106754000E0,5.957910461E0,-1.903741150E0,-3.205883331E0,7.028414854E0
1.116695000E0,5.946833496E0,-4.140240326E0,-3.195105743E0,7.919287802E0
1.126635000E0,4.244273987E0,-4.425247650E0,-2.680625610E0,6.691967730E0
1.136575000E0,3.490890656E0,-3.932023315E0,-2.063459015E0,5.648450055E0
1.146516000E0,4.184697876E0,-3.203937378E0,-1.394649811E0,5.451784949E0
1.156456000E0,5.930218048E0,-2.593806152E0,-6.511459351E-1,6.505329160E0
1.166396000E0,8.455017700E0,-2.343975677E0,1.601669312E-2,8.773927446E0
1.176337000E0,1.236623428E1,-1.721120911E0,-5.194198608E-1,1.249623161E1
1.186277000E0,1.634555923E1,-6.975494385E-1,-1.506766663E0,1.642967522E1
1.196217000E0,1.711436050E1,-1.071771240E0,-1.933229828E0,1.725651780E1
1.206157000E0,1.688069641E1,-2.605182495E0,-2.332599335E0,1.723908080E1
1.216098000E0,1.518038223E1,-3.713627472E0,-2.960842896E0,1.590602478E1
1.226038000E0,1.336256241E1,-5.310057678E0,-4.426145782E0,1.504478492E1
1.235978000E0,1.138262970E1,-7.712711334E0,-7.851023712E0,1.583315346E1
1.245919000E0,9.855655060E0,-8.659492493E0,-8.808133392E0,1.580202394E1
1.255859000E0,9.466464386E0,-7.607480164E0,-6.362219696E0,1.371005258E1
1.265799000E0,9.308542786E0,-6.298302612E0,-3.559448090E0,1.178928561E1
1.275739000E0,8.168064423E0,-5.579647064E0,-1.798060913E0,1.005399228E1
1.285680875E0,6.572831726E0,-4.973856812E0,-6.469546509E-1,8.268005733E0
1.295620875E0,5.284161530E0,-4.506828003E0,1.219963074E-1,6.946131644E0
1.305560875E0,4.238136749E0,-4.090094604E0,6.481521606E-1,5.925434853E0
1.315501875E0,3.505111084E0,-3.641327820E0,5.780978394E-1,5.087167101E0
1.325441875E0,2.746488647E0,-3.142115936E0,4.879852295E-1,4.201692758E0
1.335381875E0,1.866768036E0,-2.776276703E0,8.021818542E-1,3.440353319E0
1.345321875E0,1.527274017E0,-2.782713318E0,7.168592834E-1,3.254219809E0
1.355262875E0,1.392254791E0,-2.690056000E0,4.333488464E-1,3.059831026E0
1.365202875E0,1.116378479E0,-2.845582581E0,2.412982178E-1,3.066246233E0
1.375142875E0,7.436535645E-1,-3.181184692E0,1.107696533E-1,3.268826485E0
1.385083875E0,3.677851868E-1,-3.176694031E0,2.649490356E-1,3.208870346E0
1.395023875E0,-3.656895447E-1,-3.649111633E0,3.832031250E-1,3.687355311E0
1.404963875E0,-8.563691711E-1,-4.124223633E0,-1.797761536E-1,4.216029909E0
1.414904875E0,-1.216819611E0,-4.520449677E0,-7.527845764E-1,4.741497639E0
1.424844875E0,-1.224753113E0,-4.127965851E0,-8.452922058E-1,4.388011072E0
1.434784875E0,-8.753796387E-1,-3.373684387E0,-1.034498749E0,3.635687489E0
1.444724875E0,-4.785548401E-1,-2.711760864E0,-7.442523193E-1,2.852467920E0
1.454665875E0,-3.634442139E-1,-3.564238129E0,-4.411326599E-1,3.609776054E0
1.464605875E0,-4.169130249E0,-1.536824158E1,-1.004860382E0,1.595538281E1
1.474545875E0,-8.037984924E0,-3.837928986E1,-1.417701874E0,3.923759639E1
1.484486875E0,-5.729784851E0,-5.558900208E1,-9.848020935E-1,5.589219464E1
1.494426875E0,-1.602118378E0,-5.172119522E1,-6.201603699E-1,5.174971901E1
1.504366875E0,-2.585722961E0,-3.602184219E1,2.439177704E0,3.619680464E1
1.514306875E0,-2.364033966E0,-1.886796387E1,5.113965454E0,1.969114927E1
1.524247875E0,-2.115550690E0,-9.746831360E0,5.074597321E0,1.119052341E1
1.534187875E0,-2.078876953E0,-5.913003845E0,3.536695404E0,7.196774155E0
1.544127875E0,-1.851499786E0,-3.678450623E0,1.428329773E0,4.358804467E0
1.554068875E0,-1.798959045E0,-1.929936676E0,-3.302881622E0,4.227284735E0
1.564008875E0,-1.830243988E0,-1.005908203E0,-6.873406677E0,7.183687334E0
1.573948875E0,-1.377585297E0,-2.146685944E0,-3.824846191E0,4.597330767E0
1.583888875E0,-1.156644745E0,-3.681743774E0,-1.204994202E0,4.042904316E0
1.593829875E0,-1.542841644E0,-5.427413635E0,-3.103047180E-1,5.650970547E0
1.603769875E0,-2.474504242E0,-7.586972809E0,2.007325745E-1,7.982832906E0
1.613709875E0,-3.579057312E0,-9.927805023E0,8.451425171E-1,1.058703120E1
1.623650875E0,-4.117936707E0,-1.273042694E1,4.830455017E-1,1.338859611E1
1.633590875E0,-3.380420380E0,-1.419632858E1,-2.203417969E-1,1.459491479E1
1.643530875E0,-2.033820648E0,-1.334998856E1,-7.219487000E-1,1.352330695E1
1.653470875E0,-6.089337158E-1,-1.173799072E1,-8.976832581E-1,1.178800499E1
1.663411875E0,-2.222877502E-1,-1.054512131E1,-8.107141113E-1,1.057857517E1
1.673351875E0,-8.289761353E-1,-9.689650269E0,-5.104385376E-1,9.738432690E0
1.683291875E0,-1.769769745E0,-9.533524933E0,6.960525513E-2,9.696650323E0
1.693232875E0,-2.290536804E0,-9.718240814E0,5.022056580E-1,9.997148288E0
1.703172875E0,-2.103874969E0,-9.668394470E0,7.191046143E-1,9.920748609E0
1.713112875E0,-1.331331482E0,-9.336534576E0,7.077282715E-1,9.457494421E0
1.723053875E0,-4.156855774E-1,-8.909322968E0,5.664221191E-1,8.936982950E0
1.732993875E0,4.909790039E-2,-8.584348755E0,5.096900940E-1,8.599606860E0
1.742933875E0,1.058299255E-1,-8.383167114E0,5.339396667E-1,8.400820341E0
1.752873875E0,-1.176553345E-1,-8.529862061E0,5.893244934E-1,8.551005374E0
1.762814875E0,-4.144880676E-1,-9.001680908E0,4.746629333E-1,9.023711234E0
1.772754875E0,-5.713618469E-1,-9.616003418E0,1.360670471E-1,9.633923932E0
1.782694875E0,-5.382806396E-1,-1.027687912E1,-4.366419983E-1,1.030022557E1
1.792634875E0,-4.062551880E-1,-1.074166260E1,-1.241069183E0,1.082074911E1
1.802575875E0,-3.787124634E-1,-1.089000412E1,-1.924547882E0,1.106523824E1
1.812515875E0,-5.686674500E-1,-1.070843170E1,-2.138752441E0,1.093472241E1
1.822455875E0,-9.916877747E-1,-1.031205597E1,-1.845512238E0,1.052273056E1
1.832396875E0,-1.424886932E0,-9.927505646E0,-1.414109344E0,1.012844393E1
1.842336875E0,-1.722767487E0,-9.790690155E0,-1.035396881E0,9.994878100E0
1.852276875E0,-1.893712006E0,-9.923464050E0,-7.327262878E-1,1.012907556E1
1.862217875E0,-1.949246521E0,-9.839488678E0,-4.219725037E-1,1.003957968E1
1.872157875E0,-1.908531189E0,-9.719588013E0,-1.154100037E-1,9.905867045E0
1.882097875E0,-1.877246246E0,-9.963880005E0,6.421646118E-2,1.013938272E1
1.892037875E0,-1.564546509E0,-9.923014984E0,-1.134640503E-1,1.004623841E1
1.901978875E0,-1.228345642E0,-9.789642334E0,-4.047583008E-1,9.874702999E0
1.911918875E0,-6.376739502E-1,-9.374854889E0,-8.933422852E-1,9.438887259E0
1.921858875E0,1.342707825E-1,-8.639434204E0,-1.418749695E0,8.756180829E0
1.931799875E0,4.436773682E-1,-8.674161987E0,-1.641935577E0,8.839337545E0
1.941739875E0,4.507127380E-1,-9.172475739E0,-1.451082458E0,9.297477800E0
1.951679875E0,5.571414185E-1,-9.537566528E0,-9.979747009E-1,9.605807376E0
1.961619875E0,8.783734131E-1,-9.724078674E0,-5.915698242E-1,9.781574555E0
1.971560875E0,1.260379028E0,-9.925559692E0,-2.372566223E-1,1.000807580E1
1.981500875E0,1.750908966E0,-1.006432114E1,9.175918579E-2,1.021590240E1
1.991440875E0,2.271526337E0,-1.024230103E1,4.312532043E-1,1.050002579E1
2.001381875E0,2.740052032E0,-1.027373566E1,6.960525513E-1,1.065560973E1
2.011321875E0,3.023562469E0,-1.019514908E1,8.134085083E-1,1.066511266E1
2.021261875E0,3.254981232E0,-1.017314484E1,7.448510742E-1,1.070712762E1
2.031201875E0,3.572620697E0,-1.012584320E1,4.920268250E-1,1.074887946E1
2.041142875E0,3.855981445E0,-1.008048752E1,2.258802795E-1,1.079517686E1
2.051082875E0,4.098028107E0,-1.017763550E1,1.612147522E-1,1.097287970E1
2.061022875E0,4.310436401E0,-1.047431854E1,2.168989563E-1,1.132864758E1
2.070963875E0,4.419858856E0,-1.073971664E1,2.746788025E-1,1.161688919E1
2.080903875E0,4.504432983E0,-1.090153015E1,3.210823059E-1,1.179984619E1
2.090843875E0,4.461921387E0,-1.085198318E1,1.951940918E-1,1.173509191E1
2.100783875E0,4.285887451E0,-1.053569092E1,-1.537303162E-1,1.137511527E1
2.110724875E0,3.894002380E0,-1.001731888E1,-6.586303711E-1,1.076771684E1
2.120664875E0,3.303779755E0,-9.521699524E0,-1.149609375E0,1.014393041E1
2.130604875E0,2.786904602E0,-9.415270844E0,-1.552571411E0,9.941058309E0
2.140545875E0,2.340832214E0,-9.558522949E0,-1.792522430E0,1.000289923E1
2.150485875E0,1.711091766E0,-9.789193268E0,-1.903591461E0,1.011829039E1
2.160425875E0,1.157842255E0,-1.001881577E1,-1.798659668E0,1.024463004E1
2.170365875E0,7.900570679E-1,-1.015892441E1,-1.436562653E0,1.029036674E1
2.180306875E0,4.596940613E-1,-1.013302826E1,-8.984317017E-1,1.018316060E1
2.190246875E0,2.800675964E-1,-1.007809250E1,-3.109034729E-1,1.008677586E1
2.200186875E0,9.400451660E-2,-1.003168900E1,2.165995789E-1,1.003446742E1
2.210127875E0,-5.987548828E-2,-9.960437164E0,5.957611084E-1,9.978417955E0
2.220067875E0,-2.528242493E-1,-9.876761169E0,7.945477295E-1,9.911893734E0
2.230007875E0,-4.270619202E-1,-9.780511322E0,9.003776550E-1,9.831147620E0
2.239947875E0,-5.155279541E-1,-9.663903809E0,1.025068359E0,9.731781493E0
2.249888875E0,-6.207591248E-1,-9.589508514E0,1.153650970E0,9.678580784E0
2.259828875E0,-7.168592834E-1,-9.648635559E0,1.306034088E0,9.762980100E0
2.269768875E0,-7.191046143E-1,-9.744436340E0,1.466500397E0,9.880373194E0
2.279709875E0,-6.574328613E-1,-9.854158173E0,1.594484253E0,1.000395078E1
2.289648875E0,-5.352868652E-1,-9.964029694E0,1.633403320E0,1.011120300E1
2.299588875E0,-5.528004456E-1,-1.002794678E1,1.738335114E0,1.019250283E1
2.309528875E0,-5.788462830E-1,-1.004276596E1,1.914219360E0,1.023994370E1
2.319469875E0,-5.005590820E-1,-9.969717865E0,2.044149170E0,1.018942489E1
2.329409875E0,-5.947132874E-1,-9.827962646E0,2.043550415E0,1.005577605E1
2.339349875E0,-8.219407654E-1,-9.684111786E0,2.023342438E0,9.927311938E0
2.349290875E0,-1.265767822E0,-9.539662170E0,2.178719330E0,9.866820178E0
2.359230875E0,-1.743574219E0,-9.421557770E0,2.202070770E0,9.831323285E0
2.369170875E0,-2.039508820E0,-9.424252167E0,1.989662476E0,9.845551376E0
2.379110875E0,-2.043550415E0,-9.536369019E0,1.725761261E0,9.904377027E0
2.389051875E0,-1.739532623E0,-9.643246765E0,1.272354126E0,9.881147046E0
2.398991875E0,-1.442999268E0,-9.666747894E0,8.605604553E-1,9.811667852E0
2.408931875E0,-1.297801208E0,-9.645791473E0,7.744894409E-1,9.763473512E0
2.418872875E0,-1.178648987E0,-9.660910034E0,6.816824341E-1,9.756386988E0
2.428812875E0,-9.220825195E-1,-9.732161865E0,3.849993896E-1,9.783324347E0
2.438752875E0,-6.005511475E-1,-9.827513580E0,2.799179077E-2,9.845885861E0
2.448692875E0,-4.209246826E-1,-9.919422455E0,-2.104623413E-1,9.930579732E0
2.458633875E0,-4.284091187E-1,-9.993069305E0,-2.618055725E-1,1.000567392E1
2.468573875E0,-4.460723877E-1,-1.010608429E1,-1.773811340E-1,1.011747915E1
2.478513875E0,-3.293151855E-1,-1.026939468E1,-1.333726501E-1,1.027553911E1
2.488454875E0,3.098556519E-2,-1.044468018E1,-4.854405212E-1,1.045600098E1
2.498394875E0,4.924758911E-1,-1.049662216E1,-1.525777130E0,1.061836170E1
2.508334875E0,8.053253174E-1,-1.036010605E1,-2.782114563E0,1.075734668E1
2.518274875E0,8.231382751E-1,-1.003019211E1,-3.377875671E0,1.061566552E1
2.528215875E0,5.031037903E-1,-9.693392487E0,-2.771935730E0,1.009448359E1
2.538155875E0,1.104702759E-1,-9.718091125E0,-1.460512848E0,9.827848014E0
2.548095875E0,-2.649490356E-2,-9.933044128E0,-2.959346008E-1,9.937486852E0
2.558036875E0,1.248403931E-1,-9.959389343E0,3.751199341E-1,9.967233126E0
2.567976875E0,2.869532776E-1,-9.784552917E0,6.985972595E-1,9.813656613E0
2.577916875E0,3.119512939E-1,-9.648934937E0,9.132508850E-1,9.697076167E0
2.587856875E0,1.939965820E-1,-9.597292328E0,1.157093811E0,9.668739359E0
2.597797875E0,5.867797852E-2,-9.612859955E0,1.447340240E0,9.721384335E0
2.607737875E0,-2.095642090E-3,-9.728569336E0,1.664987640E0,9.870017708E0
2.617677875E0,1.422042847E-2,-9.870174866E0,1.788480835E0,1.003091311E1
2.627618875E0,-2.245330811E-3,-9.956395569E0,1.786534882E0,1.011541026E1
2.637558875E0,-2.948867798E-2,-9.970466309E0,1.692530365E0,1.011314625E1
2.647498875E0,-6.930587769E-2,-9.921069031E0,1.532064056E0,1.003890603E1
2.657438875E0,-2.903961182E-2,-9.832453308E0,1.346300354E0,9.924238308E0
2.667379875E0,9.235794067E-2,-9.725126495E0,1.132694550E0,9.791302890E0
2.677319875E0,1.856140137E-1,-9.663604431E0,9.699829102E-1,9.713936896E0
2.687259875E0,2.571652222E-1,-9.639654236E0,8.045768738E-1,9.676590912E0
2.697200875E0,3.197351074E-1,-9.649533691E0,6.785389709E-1,9.678643817E0
2.707140875E0,4.055067444E-1,-9.651928711E0,5.752537537E-1,9.677555499E0
2.717080875E0,4.236190796E-1,-9.749974823E0,4.981640625E-1,9.771879533E0
2.727020875E0,4.595443726E-1,-9.804311829E0,4.225712585E-1,9.824168053E0
2.736961875E0,5.041516113E-1,-9.805958405E0,3.227288818E-1,9.824212081E0
2.746901875E0,4.444258118E-1,-9.805359650E0,2.374063110E-1,9.818296895E0
2.756841875E0,3.218307495E-1,-9.807006226E0,2.101629639E-1,9.814535884E0
2.766782875E0,2.215393066E-1,-9.837093658E0,1.341210938E-1,9.840502008E0
2.776722875E0,1.224453735E-1,-9.914782104E0,2.065704346E-2,9.915559680E0
2.786662875E0,4.131408691E-2,-1.000085312E1,-1.100212097E-1,1.000154361E1
2.796602875E0,-1.451980591E-2,-1.001806732E1,-1.990859985E-1,1.002005583E1
2.806543875E0,-3.158432007E-2,-9.973310394E0,-2.445913696E-1,9.976359192E0
2.816483875E0,-3.847000122E-2,-9.901160431E0,-2.540217590E-1,9.904493166E0
2.826423875E0,-1.437011719E-2,-9.848619690E0,-1.989363098E-1,9.850639165E0
2.836364875E0,-3.143463135E-3,-9.843380585E0,-1.193019104E-1,9.844104030E0
2.846304875E0,3.053649902E-2,-9.842781830E0,-1.377136230E-2,9.842838832E0
2.856244875E0,4.131408691E-2,-9.839788055E0,1.272354126E-1,9.840697368E0
2.866184875E0,6.526428223E-2,-9.805359650E0,2.546205139E-1,9.808882143E0
2.876125875E0,1.043330383E-1,-9.786648560E0,3.787124634E-1,9.794529011E0
2.886065875E0,1.432521057E-1,-9.800868988E0,4.800517273E-1,9.813664135E0
2.896005875E0,1.715432739E-1,-9.803114319E0,5.466632080E-1,9.819843080E0
2.905946875E0,1.389111328E-1,-9.776918793E0,6.210585022E-1,9.797609456E0
2.915886875E0,1.341210938E-1,-9.741592255E0,6.734495544E-1,9.765763791E0
2.925826875E0,1.751358032E-1,-9.701775055E0,7.108717346E-1,9.729360225E0
2.935766875E0,2.383044434E-1,-9.712402954E0,7.304809570E-1,9.742749231E0
2.945707875E0,2.647993469E-1,-9.714648285E0,7.592211914E-1,9.747867808E0
2.955647875E0,2.562670898E-1,-9.733059998E0,8.110134888E-1,9.770152129E0
2.965587875E0,2.323168945E-1,-9.743388519E0,8.539741516E-1,9.783499519E0
2.975528875E0,1.990859985E-1,-9.732610931E0,8.646020508E-1,9.772967179E0
2.985468875E0,8.981323242E-2,-9.759704590E0,8.349636841E-1,9.795767681E0
2.995408875E0,-4.790039062E-3,-9.768536224E0,7.996371460E-1,9.801211276E0
3.005348875E0,-6.481521606E-2,-9.792785797E0,7.647596741E-1,9.822815892E0
3.015289875E0,-1.483415222E-1,-9.848470001E0,6.863227844E-1,9.873469782E0
3.025229875E0,-2.412982178E-1,-9.903256073E0,6.044430542E-1,9.924618737E0
3.035169875E0,-2.887495422E-1,-9.869426422E0,4.555027771E-1,9.884150797E0
3.045110875E0,-3.230282593E-1,-9.865235138E0,2.631527710E-1,9.874029621E0
3.055050875E0,-3.053649902E-1,-9.876611481E0,6.721023560E-2,9.881559560E0
3.064990875E0,-1.930984497E-1,-9.887688446E0,-9.669891357E-2,9.890046537E0
3.074930875E0,-4.026626587E-2,-9.883646851E0,-2.085163879E-1,9.885928157E0
3.084871875E0,7.828720093E-2,-9.829758911E0,-2.607577515E-1,9.833528550E0
3.094811875E0,1.437011719E-1,-9.731712799E0,-2.402503967E-1,9.735738507E0
3.104751875E0,1.032852173E-1,-9.680818634E0,-1.062789917E-1,9.681952927E0
3.114692875E0,4.999603271E-2,-9.706864471E0,8.592132568E-2,9.707373483E0
3.124632875E0,-1.392105103E-2,-9.788444824E0,3.101550293E-1,9.793367246E0
3.134572875E0,-3.936813354E-2,-9.835147705E0,4.972659302E-1,9.847789277E0
3.144512875E0,-9.415420532E-2,-9.818532257E0,6.846762085E-1,9.842825926E0
3.154453875E0,-1.285826111E-1,-9.806407471E0,8.634045410E-1,9.845183003E0
3.164393875E0,-1.423539734E-1,-9.825268250E0,9.463320923E-1,9.871763027E0
3.174333875E0,-1.275347900E-1,-9.837542725E0,9.505233765E-1,9.884179615E0
3.184274875E0,-5.463638306E-2,-9.846524048E0,9.322613525E-1,9.890709388E0
3.194214875E0,2.125579834E-2,-9.820478210E0,8.806187439E-1,9.859905348E0
3.204154875E0,1.517843628E-1,-9.775421906E0,8.060737610E-1,9.809774046E0
3.214094875E0,2.880010986E-1,-9.752519531E0,6.963519287E-1,9.781589229E0
3.224035875E0,4.029620361E-1,-9.766889648E0,5.942642212E-1,9.793245722E0
3.233975875E0,4.785548401E-1,-9.810000000E0,5.107379150E-1,9.834936093E0
3.243915875E0,4.848417664E-1,-9.834848328E0,4.534071350E-1,9.857225329E0
3.253856875E0,4.626878357E-1,-9.861492920E0,4.489164734E-1,9.882542620E0
3.263796875E0,3.793112183E-1,-9.873018951E0,4.387376404E-1,9.890038975E0
3.273736875E0,2.796185303E-1,-9.858798523E0,4.064048767E-1,9.871132648E0
3.283677250E0,1.522334290E-1,-9.817185059E0,4.185296631E-1,9.827281647E0
3.293618250E0,4.580474854E-2,-9.803563385E0,4.544549561E-1,9.814198002E0
3.303558250E0,-5.313949585E-2,-9.757908325E0,5.183720398E-1,9.771811923E0
3.313498250E0,-1.456471252E-1,-9.707912292E0,5.664221191E-1,9.725513261E0
3.323439250E0,-1.698966980E-1,-9.707912292E0,6.080355835E-1,9.728418846E0
3.333379250E0,-1.857637024E-1,-9.747130737E0,6.468049622E-1,9.770333793E0
3.343319250E0,-2.059716797E-1,-9.802665253E0,7.165599060E-1,9.830978003E0
3.353259250E0,-2.110610962E-1,-9.845326538E0,7.556286621E-1,9.876536645E0
3.363200250E0,-1.965412903E-1,-9.809101868E0,7.704478455E-1,9.841275213E0
3.373140250E0,-1.719923401E-1,-9.765991516E0,7.321275330E-1,9.794905940E0
3.383080250E0,-1.215472412E-1,-9.771679688E0,6.966513062E-1,9.797235359E0
3.393020250E0,-6.735992432E-2,-9.808503113E0,6.646179199E-1,9.831225135E0
3.402961250E0,1.422042847E-2,-9.841584320E0,6.008505249E-1,9.859919143E0
3.412901250E0,7.903564453E-2,-9.857301636E0,5.292993164E-1,9.871818472E0
3.422841250E0,1.103205872E-1,-9.845027161E0,5.057981873E-1,9.858628821E0
3.432782250E0,1.188528442E-1,-9.839937744E0,4.760101318E-1,9.852161512E0
3.442722250E0,1.242416382E-1,-9.828711090E0,4.529580688E-1,9.839927271E0
3.452662250E0,1.059796143E-1,-9.850715332E0,4.558021545E-1,9.861824366E0
3.462602250E0,1.068777466E-1,-9.833201752E0,4.846920776E-1,9.845720185E0
3.472543250E0,8.202941895E-2,-9.836644592E0,5.345384216E-1,9.851499225E0
3.482483250E0,4.056564331E-2,-9.836644592E0,6.057902527E-1,9.855364237E0
3.492423250E0,2.140548706E-2,-9.837991791E0,6.282435608E-1,9.858054100E0
3.502364250E0,3.098556519E-2,-9.840237122E0,6.198609924E-1,9.859789773E0
3.512304250E0,4.999603271E-2,-9.826316071E0,6.017486572E-1,9.844850866E0
3.522244250E0,5.358856201E-2,-9.816436615E0,5.728587341E-1,9.833283616E0
3.532184250E0,9.370513916E-2,-9.805060272E0,5.559439087E-1,9.821255583E0
3.542125250E0,9.131011963E-2,-9.820328522E0,5.513035583E-1,9.836214995E0
3.552065250E0,9.954299927E-2,-9.788295135E0,5.306465149E-1,9.803173782E0
3.562005250E0,9.969268799E-2,-9.793085175E0,5.798941040E-1,9.810745794E0
3.571946250E0,1.206491089E-1,-9.787995758E0,5.809419250E-1,9.805963017E0
3.581886250E0,1.342707825E-1,-9.792785797E0,5.686674500E-1,9.810202087E0
3.591826250E0,8.322692871E-2,-9.782457275E0,5.815406799E-1,9.800080950E0
3.601766250E0,7.289840698E-2,-9.786498871E0,5.803431702E-1,9.803962083E0
3.611707250E0,4.685256958E-2,-9.781409454E0,6.210585022E-1,9.801218278E0
3.621647250E0,3.053649902E-2,-9.781858521E0,6.120771790E-1,9.801037040E0
3.631587250E0,3.861968994E-2,-9.806706848E0,5.899232483E-1,9.824510172E0
3.641528250E0,3.891906738E-2,-9.807754669E0,5.477110291E-1,9.823113240E0
3.651468250E0,3.233276367E-2,-9.833201752E0,5.513035583E-1,9.848697260E0
3.661408250E0,2.619552612E-2,-9.836195526E0,5.632786560E-1,9.852345481E0
3.671348250E0,3.682342529E-2,-9.843829651E0,5.212161255E-1,9.857687579E0
3.681289250E0,5.792953491E-2,-9.839638367E0,4.848417664E-1,9.851746574E0
3.691229250E0,4.954696655E-2,-9.819280701E0,4.513114929E-1,9.829771637E0
3.701169250E0,3.128494263E-2,-9.821376343E0,4.537065125E-1,9.831900204E0
3.711110250E0,4.281097412E-2,-9.804162140E0,4.593946838E-1,9.815012558E0
3.721050250E0,3.996688843E-2,-9.796228638E0,4.812492371E-1,9.808123863E0
3.730990250E0,3.921844482E-2,-9.778565369E0,5.011578369E-1,9.791477822E0
3.740930250E0,3.472778320E-2,-9.768236847E0,5.264552307E-1,9.782474750E0
3.750871250E0,1.736389160E-2,-9.744586029E0,5.566923523E-1,9.760489986E0
3.760811250E0,-1.841171265E-2,-9.733658752E0,6.074368286E-1,9.752611507E0
3.770751250E0,-5.538482666E-3,-9.764344940E0,6.441105652E-1,9.785568006E0
3.780691250E0,8.083190918E-3,-9.792336731E0,6.581813049E-1,9.814434605E0
3.790632250E0,3.966751099E-2,-9.822723541E0,6.619235229E-1,9.845080702E0
3.800572250E0,6.032455444E-2,-9.846374359E0,6.667135620E-1,9.869105028E0
3.810512250E0,5.194198608E-2,-9.842183075E0,6.499484253E-1,9.863756820E0
3.820453250E0,7.634124756E-2,-9.836195526E0,6.535409546E-1,9.858178645E0
3.830393250E0,6.391708374E-2,-9.827363892E0,6.237528992E-1,9.847346553E0
3.840333250E0,4.550537109E-2,-9.816735992E0,5.833369446E-1,9.834157731E0
3.850273250E0,2.185455322E-2,-9.818981323E0,5.269042969E-1,9.833132766E0
3.860214250E0,-5.388793945E-3,-9.829160156E0,4.821473694E-1,9.840979855E0
3.870154250E0,-4.251159668E-2,-9.847122803E0,4.885839844E-1,9.859328022E0
3.880094250E0,-7.514373779E-2,-9.859996033E0,4.658312988E-1,9.871279914E0
3.890035250E0,-1.136137390E-1,-9.846224670E0,4.523593140E-1,9.857265203E0
3.899975250E0,-1.654060364E-1,-9.845625916E0,4.532574463E-1,9.857441409E0
3.909915250E0,-1.474433899E-1,-9.789492645E0,4.767585754E-1,9.802204066E0
3.919855250E0,-1.076261902E-1,-9.779613190E0,5.019062805E-1,9.793075485E0
3.929796250E0,-5.343887329E-2,-9.780511322E0,5.007087708E-1,9.793465511E0
3.939736250E0,-1.811233521E-2,-9.797276459E0,5.159770203E-1,9.810870825E0
3.949676250E0,1.302291870E-2,-9.819729767E0,5.474116516E-1,9.834984586E0
3.959617250E0,4.146377563E-2,-9.814041595E0,5.873785400E-1,9.831690863E0
3.969557250E0,5.927673340E-2,-9.807006226E0,6.375242615E-1,9.827884921E0
3.979497250E0,7.978408813E-2,-9.811047821E0,6.361770630E-1,9.831975697E0
3.989437250E0,1.059796143E-1,-9.805808716E0,6.277944946E-1,9.826456237E0
3.999378250E0,9.190887451E-2,-9.802964630E0,6.280938721E-1,9.823495543E0
4.009318250E0,5.867797852E-2,-9.802216187E0,6.354286194E-1,9.822965683E0
4.019258250E0,3.906875610E-2,-9.799671478E0,6.280938721E-1,9.819856891E0
4.029199250E0,-2.679428101E-2,-9.824968872E0,6.343807983E-1,9.845464452E0
4.039139250E0,-6.780899048E-2,-9.832303619E0,6.306385803E-1,9.852740611E0
4.049079250E0,-9.699829102E-2,-9.835447083E0,5.879772949E-1,9.853483916E0
4.059019250E0,-1.499880981E-1,-9.825867004E0,5.315446472E-1,9.841376861E0
4.068960250E0,-1.808239746E-1,-9.813742218E0,4.966671753E-1,9.827965808E0
4.078900250E0,-2.029779053E-1,-9.801168365E0,4.701722717E-1,9.814538365E0
4.088840250E0,-1.933978271E-1,-9.791887665E0,4.424798584E-1,9.803787798E0
4.098780250E0,-1.588197327E-1,-9.775272217E0,4.221221924E-1,9.785671043E0
4.108721250E0,-9.580078125E-2,-9.782457275E0,4.260140991E-1,9.792197718E0
4.118661250E0,-2.619552612E-2,-9.802964630E0,4.496649170E-1,9.813307306E0
4.128601250E0,2.454895020E-2,-9.819729767E0,4.755610657E-1,9.831269179E0
4.138542250E0,8.262817383E-2,-9.853409729E0,5.260061646E-1,9.867785627E0
4.148482250E0,6.496490479E-2,-9.821526031E0,5.439688110E-1,9.836792978E0
4.158422250E0,4.610412598E-2,-9.810898132E0,5.569917297E-1,9.826804544E0
4.168362250E0,4.445755005E-2,-9.787846069E0,5.981561279E-1,9.806207111E0
4.178303250E0,-5.837860107E-3,-9.800719299E0,6.180647278E-1,9.820190267E0
4.188243250E0,-4.565505981E-2,-9.804910583E0,6.026467896E-1,9.823519689E0
4.198183250E0,-5.508544922E-2,-9.832752686E0,5.671705627E-1,9.849250846E0
4.208124250E0,-1.661544800E-2,-9.832303619E0,5.135820007E-1,9.845721762E0
4.218064250E0,2.230361938E-2,-9.791288910E0,4.632865906E-1,9.802268637E0
4.228004250E0,4.939727783E-3,-9.767189026E0,4.595443726E-1,9.777995035E0
4.237944250E0,3.667373657E-2,-9.770332489E0,4.641847229E-1,9.781421643E0
4.247885250E0,4.460723877E-2,-9.790989532E0,4.778063965E-1,9.802742717E0
4.257825250E0,5.478607178E-2,-9.803264008E0,4.685256958E-1,9.814606617E0
4.267765250E0,6.765930176E-2,-9.824370117E0,4.564009094E-1,9.835198410E0
4.277706250E0,2.844085693E-2,-9.807006226E0,4.640350342E-1,9.818019582E0
4.287646667E0,1.945953369E-3,-9.802814941E0,4.628375244E-1,9.813735432E0
4.297586667E0,-1.586700439E-2,-9.822424164E0,4.860392761E-1,9.834454860E0
4.307526667E0,-4.041595459E-2,-9.791139221E0,5.143304443E-1,9.804722153E0
4.317467667E0,-3.802093506E-2,-9.781409454E0,5.132826233E-1,9.794941325E0
4.327407667E0,-1.841171265E-2,-9.798024902E0,5.065466309E-1,9.811127380E0
4.337347667E0,-1.107696533E-2,-9.809850311E0,5.275030518E-1,9.824028975E0
4.347287667E0,-7.035369873E-3,-9.793534241E0,5.273533630E-1,9.807724710E0
4.357228667E0,5.388793945E-3,-9.800719299E0,5.327421570E-1,9.815189353E0
4.367168667E0,7.634124756E-3,-9.803413696E0,5.417234802E-1,9.818372712E0
4.377108667E0,-2.844085693E-3,-9.797725525E0,5.487588501E-1,9.813081566E0
4.387049667E0,7.484436035E-4,-9.806557159E0,5.310955811E-1,9.820927980E0
4.396989667E0,-5.987548828E-3,-9.810000000E0,5.189707947E-1,9.823719588E0
4.406929667E0,-1.871109009E-2,-9.804012451E0,5.062472534E-1,9.817092061E0
4.416869667E0,-4.131408691E-2,-9.785750427E0,4.851411438E-1,9.797855898E0
4.426810667E0,-6.706054688E-2,-9.764045563E0,4.716691589E-1,9.775661342E0
4.436750667E0,-3.113525391E-2,-9.791139221E0,4.622387695E-1,9.802093722E0
4.446690667E0,-6.286926270E-3,-9.804760895E0,4.833448792E-1,9.816669395E0
4.456631667E0,-3.143463135E-3,-9.827962646E0,4.860392761E-1,9.839974280E0
4.466571667E0,-2.260299683E-2,-9.812844086E0,4.900808716E-1,9.825100468E0
4.476511667E0,-7.933502197E-3,-9.794432373E0,4.957690430E-1,9.806974834E0
4.486451667E0,2.694396973E-3,-9.789941711E0,4.996609497E-1,9.802684685E0
4.496392667E0,5.388793945E-3,-9.793534241E0,5.126838684E-1,9.806945840E0
4.506332667E0,1.586700439E-2,-9.826465759E0,5.119354248E-1,9.839804823E0
4.516272667E0,3.442840576E-3,-9.853709106E0,4.830455017E-1,9.865542457E0
4.526212667E0,1.766326904E-2,-9.840835876E0,4.917274475E-1,9.853129382E0
4.536153667E0,3.622467041E-2,-9.805659027E0,5.123844910E-1,9.819103780E0
4.546093667E0,3.098556519E-2,-9.789642334E0,5.307962036E-1,9.804070672E0
4.556033667E0,3.936813354E-2,-9.775721283E0,5.370831299E-1,9.790543128E0
4.565974667E0,3.487747192E-2,-9.742789764E0,5.773493958E-1,9.759943707E0
4.575914667E0,1.257385254E-2,-9.767189026E0,5.884263611E-1,9.784905986E0
4.585854667E0,-1.212478638E-2,-9.801467743E0,5.736071777E-1,9.818245369E0
4.595794667E0,-2.844085693E-2,-9.816436615E0,5.680686951E-1,9.832900830E0
4.605735667E0,-2.589614868E-2,-9.830357666E0,5.539979553E-1,9.845989853E0
4.615675667E0,-3.742218018E-2,-9.826166382E0,5.415737915E-1,9.841150764E0
4.625615667E0,-4.221221924E-2,-9.819580078E0,5.402265930E-1,9.834519793E0
4.635556667E0,-1.661544800E-2,-9.794731750E0,5.436694336E-1,9.809822760E0
4.645496667E0,-4.790039062E-3,-9.773026886E0,5.287005615E-1,9.787318414E0
4.655436667E0,1.945953369E-2,-9.799671478E0,5.355862427E-1,9.814315686E0
4.665376667E0,3.727249146E-2,-9.829609222E0,5.251080322E-1,9.843695706E0
4.675317667E0,6.212081909E-2,-9.834548950E0,5.138813782E-1,9.848161560E0
4.685257667E0,8.457412720E-2,-9.838440857E0,5.119354248E-1,9.852113944E0
4.695197667E0,5.987548828E-2,-9.834998016E0,5.251080322E-1,9.849188266E0
4.705138667E0,5.089416504E-2,-9.825717316E0,5.513035583E-1,9.841303094E0
4.715078667E0,5.044509888E-2,-9.804311829E0,5.761518860E-1,9.821355616E0
4.725018667E0,2.395019531E-2,-9.799372101E0,5.677693176E-1,9.815835633E0
4.734958667E0,-1.586700439E-2,-9.801617432E0,5.800437927E-1,9.818778276E0
4.744899667E0,-4.565505981E-2,-9.798324280E0,5.998027039E-1,9.816771687E0
4.754839667E0,-5.343887329E-2,-9.791588287E0,5.980064392E-1,9.809978012E0
4.764779667E0,-6.646179199E-2,-9.791288910E0,5.833369446E-1,9.808875454E0
4.774719667E0,-3.966751099E-2,-9.798324280E0,5.566923523E-1,9.814205958E0
4.784660667E0,-5.328918457E-2,-9.798324280E0,5.492079163E-1,9.813848774E0
4.794600667E0,-7.289840698E-2,-9.807006226E0,5.634283447E-1,9.823448314E0
4.804540667E0,-7.858657837E-2,-9.797426147E0,5.596861267E-1,9.813714054E0
4.814481667E0,-6.376739502E-2,-9.810000000E0,5.327421570E-1,9.824661851E0
4.824421667E0,-3.861968994E-2,-9.823022919E0,5.222639465E-1,9.836972622E0
4.834361667E0,-5.463638306E-2,-9.805509338E0,5.068460083E-1,9.818752028E0
4.844301667E0,-3.772155762E-2,-9.809251556E0,5.019062805E-1,9.822156022E0
4.854242667E0,-1.257385254E-2,-9.821076965E0,4.966671753E-1,9.833635602E0
4.864182667E0,-1.272354126E-2,-9.838291168E0,5.264552307E-1,9.852374846E0
4.874122667E0,-2.514770508E-2,-9.826465759E0,5.275030518E-1,9.840646381E0
4.884063667E0,-6.541397095E-2,-9.820777588E0,5.679190063E-1,9.837402270E0
4.894003667E0,-9.984237671E-2,-9.810598755E0,5.957611084E-1,9.829178385E0
4.903943667E0,-1.314266968E-1,-9.803713074E0,5.834866333E-1,9.821940728E0
4.913883667E0,-1.335223389E-1,-9.773625641E0,5.713618469E-1,9.791222638E0
4.923824667E0,-1.230441284E-1,-9.781559143E0,5.487588501E-1,9.797712764E0
4.933764667E0,-1.022373962E-1,-9.808952179E0,5.517526245E-1,9.824989888E0
4.943704667E0,-1.272354126E-1,-9.797276459E0,5.604345703E-1,9.814117473E0
4.953644667E0,-1.318757629E-1,-9.799821167E0,5.776487732E-1,9.817716854E0
4.963585667E0,-1.218466187E-1,-9.800120544E0,5.962101746E-1,9.818995664E0
4.973525667E0,-1.314266968E-1,-9.788444824E0,5.920188904E-1,9.807212214E0
4.983465667E0,-8.981323242E-2,-9.779463501E0,6.207591248E-1,9.799556861E0
4.993406667E0,-7.529342651E-2,-9.783654785E0,6.033952332E-1,9.802533135E0
5.003346667E0,-6.780899048E-2,-9.814790039E0,5.694158936E-1,9.831527655E0
5.013286667E0,-2.380050659E-2,-9.819729767E0,5.944139099E-1,9.837732821E0
5.023226667E0,-1.691482544E-2,-9.823921051E0,6.262976074E-1,9.843879297E0
5.033167667E0,-1.631607056E-2,-9.833201752E0,6.268963623E-1,9.853178267E0
5.043107667E0,-3.173400879E-2,-9.848020935E0,6.177653503E-1,9.867429119E0
5.053047667E0,-3.622467041E-2,-9.840386810E0,6.195616150E-1,9.859938205E0
5.062988667E0,-4.071533203E-2,-9.845326538E0,6.024971008E-1,9.863828625E0
5.072928667E0,-4.580474854E-2,-9.827064514E0,5.634283447E-1,9.843309735E0
5.082868667E0,-5.403762817E-2,-9.826316071E0,5.411247253E-1,9.841352730E0
5.092808667E0,-7.574249268E-2,-9.810000000E0,5.179229736E-1,9.823954455E0
5.102749667E0,-5.583389282E-2,-9.809251556E0,4.989125061E-1,9.822089758E0
5.112689667E0,-6.451583862E-2,-9.787846069E0,5.331912231E-1,9.802570370E0
5.122629667E0,-7.514373779E-2,-9.778715057E0,5.542973328E-1,9.794700623E0
5.132570667E0,-5.613327026E-2,-9.747280426E0,5.795947266E-1,9.764658555E0
5.142510667E0,-5.822891235E-2,-9.736353149E0,6.191125488E-1,9.756191040E0
5.152450667E0,-8.098159790E-2,-9.787397003E0,6.418652344E-1,9.808755736E0
5.162390667E0,-9.624984741E-2,-9.826016693E0,6.489006042E-1,9.847890133E0
5.172331667E0,-9.490264893E-2,-9.847272491E0,6.553372192E-1,9.869511077E0
5.182271667E0,-7.978408813E-2,-9.830058289E0,6.418652344E-1,9.851314757E0
5.192211667E0,-8.966354370E-2,-9.806557159E0,6.595285034E-1,9.829119020E0
5.202151667E0,-1.137634277E-1,-9.793234863E0,6.887178040E-1,9.818081453E0
5.212092667E0,-1.384620667E-1,-9.773625641E0,6.744973755E-1,9.797850612E0
5.222032667E0,-1.333726501E-1,-9.777068481E0,6.575825500E-1,9.800064855E0
5.231972667E0,-9.580078125E-2,-9.787397003E0,6.045927429E-1,9.806520804E0
5.241913667E0,-8.831634521E-2,-9.810449066E0,5.789959717E-1,9.827916717E0
5.251853667E0,-9.250762939E-2,-9.797875214E0,5.444178772E-1,9.813424845E0
5.261793667E0,-6.346801758E-2,-9.785750427E0,5.114863586E-1,9.799314155E0
5.271733667E0,-4.176315308E-2,-9.775272217E0,5.105882263E-1,9.788686909E0
5.281674667E0,-1.511856079E-2,-9.789642334E0,5.269042969E-1,9.803823424E0
5.291614875E0,-2.634521484E-2,-9.797725525E0,5.653742981E-1,9.814059692E0
5.301554875E0,-4.221221924E-2,-9.799821167E0,6.021977234E-1,9.818396961E0
5.311495875E0,-8.053253174E-2,-9.822573853E0,6.331832886E-1,9.843290286E0
5.321435875E0,-9.684860229E-2,-9.827663269E0,6.126759338E-1,9.847218733E0
5.331375875E0,-8.397537231E-2,-9.812694397E0,5.918692017E-1,9.830886651E0
5.341315875E0,-1.001417542E-1,-9.812095642E0,5.800437927E-1,9.829735503E0
5.351256875E0,-6.032455444E-2,-9.807455292E0,5.760021973E-1,9.824540543E0
5.361196875E0,-4.954696655E-2,-9.798324280E0,5.548960876E-1,9.814149136E0
5.371136875E0,-4.984634399E-2,-9.811496887E0,5.354365540E-1,9.826222475E0
5.381076875E0,-3.787124634E-2,-9.790839844E0,5.511538696E-1,9.806413700E0
5.391017875E0,3.742218018E-3,-9.788444824E0,5.301974487E-1,9.802794266E0
5.400957875E0,3.607498169E-2,-9.781259766E0,5.319937134E-1,9.795782833E0
5.410897875E0,1.856140137E-2,-9.812694397E0,5.625302124E-1,9.828822722E0
5.420838875E0,3.802093506E-2,-9.829010468E0,5.602848816E-1,9.845039945E0
5.430778875E0,1.960922241E-2,-9.813442841E0,5.667214966E-1,9.829812723E0
5.440718875E0,1.002914429E-2,-9.830058289E0,5.899232483E-1,9.847748777E0
5.450658875E0,-4.550537109E-2,-9.827812958E0,6.117778015E-1,9.846941167E0
5.460599875E0,-1.025367737E-1,-9.821526031E0,6.267466736E-1,9.842037328E0
5.470539875E0,-1.535806274E-1,-9.824070740E0,6.258485413E-1,9.845183559E0
5.480479875E0,-1.457968140E-1,-9.803862762E0,5.987548828E-1,9.823211755E0
5.490420875E0,-1.434017944E-1,-9.794881439E0,6.093827820E-1,9.814866981E0
5.500360875E0,-1.249900818E-1,-9.802964630E0,5.840853882E-1,9.821145239E0
5.510300875E0,-7.813751221E-2,-9.834698639E0,5.941145325E-1,9.852937373E0
5.520240875E0,-5.987548828E-2,-9.824819183E0,5.900729370E-1,9.842705072E0
5.530181875E0,-4.745132446E-2,-9.823471985E0,5.761518860E-1,9.840467695E0
5.540121875E0,-7.469467163E-2,-9.816286926E0,5.704637146E-1,9.833132622E0
5.550061875E0,-7.768844604E-2,-9.816885681E0,5.825885010E-1,9.834464364E0
5.560001875E0,-9.505233765E-2,-9.808203735E0,6.104306030E-1,9.827640662E0
5.569942875E0,-9.759704590E-2,-9.793534241E0,6.310876465E-1,9.814331853E0
5.579882875E0,-1.053808594E-1,-9.778265991E0,6.331832886E-1,9.799311812E0
5.589822875E0,-1.097218323E-1,-9.780661011E0,6.620732117E-1,9.803657972E0
5.599763875E0,-1.254391479E-1,-9.792037354E0,6.682104492E-1,9.815611836E0
5.609703875E0,-1.544787598E-1,-9.817634125E0,6.872209167E-1,9.842869301E0
5.619643875E0,-1.877096558E-1,-9.810598755E0,6.632707214E-1,9.834785757E0
5.629583875E0,-2.053729248E-1,-9.801617432E0,6.411167908E-1,9.824709311E0
5.639524875E0,-1.880090332E-1,-9.809700623E0,6.279441833E-1,9.831576049E0
5.649464875E0,-1.655557251E-1,-9.818532257E0,5.830375671E-1,9.837221009E0
5.659404875E0,-1.302291870E-1,-9.795180817E0,5.557942200E-1,9.811800757E0
5.669344875E0,-5.328918457E-2,-9.788744202E0,5.454656982E-1,9.804074949E0
5.679285875E0,-3.442840576E-2,-9.780361633E0,5.188211060E-1,9.794173489E0
5.689225875E0,-1.811233521E-2,-9.795779572E0,5.372328186E-1,9.810517039E0
5.699165875E0,-2.170486450E-2,-9.807455292E0,5.448669434E-1,9.822603035E0
5.709106875E0,-3.951782227E-2,-9.822723541E0,5.611830139E-1,9.838820346E0
5.719046875E0,-4.131408691E-2,-9.821675720E0,5.804928589E-1,9.838902010E0
5.728986875E0,-7.888595581E-2,-9.821825409E0,5.875282288E-1,9.839698510E0
5.738926875E0,-1.083746338E-1,-9.798923035E0,6.168672180E-1,9.818918620E0
5.748867875E0,-1.163081360E-1,-9.785151672E0,6.008505249E-1,9.804271630E0
5.758807875E0,-9.265731812E-2,-9.772278442E0,6.029461670E-1,9.791299986E0
5.768747875E0,-8.786727905E-2,-9.789492645E0,5.966592407E-1,9.808052261E0
5.778688875E0,-8.352630615E-2,-9.793983307E0,5.971083069E-1,9.812523834E0
5.788628875E0,-7.155120850E-2,-9.796378326E0,5.990542603E-1,9.814938303E0
5.798568875E0,-6.197113037E-2,-9.802066498E0,6.185137939E-1,9.821756837E0
5.808508875E0,-6.646179199E-2,-9.804311829E0,6.300398254E-1,9.824759426E0
5.818449875E0,-8.038284302E-2,-9.807904358E0,6.186634827E-1,9.827725769E0
5.828389875E0,-1.026864624E-1,-9.828411713E0,5.800437927E-1,9.846048553E0
5.838329875E0,-1.100212097E-1,-9.837093658E0,5.559439087E-1,9.853404992E0
5.848269875E0,-1.294807434E-1,-9.835297394E0,5.369334412E-1,9.850793755E0
5.858210875E0,-1.272354126E-1,-9.809251556E0,5.378315735E-1,9.824808789E0
5.868150875E0,-1.267863464E-1,-9.779613190E0,5.349874878E-1,9.795055923E0
5.878090875E0,-1.390608215E-1,-9.765692139E0,5.276527405E-1,9.780925226E0
5.888031875E0,-1.378633118E-1,-9.767937469E0,5.366340637E-1,9.783638629E0
5.897971875E0,-1.091230774E-1,-9.779912567E0,5.641767883E-1,9.796779732E0
5.907911875E0,-1.092727661E-1,-9.799521790E0,5.881269836E-1,9.817762535E0
5.917851875E0,-1.152603149E-1,-9.808203735E0,5.851332092E-1,9.826318045E0
5.927792875E0,-9.370513916E-2,-9.823022919E0,5.872288513E-1,9.841005926E0
5.937732875E0,-7.738906860E-2,-9.789193268E0,6.098318481E-1,9.808475355E0
5.947672875E0,-6.077362061E-2,-9.783954163E0,6.259982300E-1,9.804148422E0
5.957613875E0,-5.328918457E-2,-9.781708832E0,6.402186584E-1,9.802782632E0
5.967553875E0,-4.670288086E-2,-9.780810699E0,6.462062073E-1,9.802245741E0
5.977493875E0,-7.963439941E-2,-9.791139221E0,6.168672180E-1,9.810875295E0
5.987433875E0,-9.385482788E-2,-9.818232880E0,6.261479187E-1,9.838626267E0
5.997374875E0,-1.237925720E-1,-9.820328522E0,6.306385803E-1,9.841335372E0
6.007314875E0,-1.456471252E-1,-9.852960663E0,6.277944946E-1,9.874015031E0
6.017254875E0,-1.445993042E-1,-9.858648834E0,5.944139099E-1,9.877610728E0
6.027194875E0,-1.431024170E-1,-9.835746460E0,5.571414185E-1,9.852552628E0
6.037135875E0,-1.233435059E-1,-9.801767120E0,5.502557373E-1,9.817975029E0
6.047075875E0,-1.362167358E-1,-9.747280426E0,5.574407959E-1,9.764157462E0
6.057015875E0,-1.613644409E-1,-9.770033112E0,5.833369446E-1,9.788762306E0
6.066956875E0,-2.020797729E-1,-9.833501129E0,6.056405640E-1,9.854206269E0
6.076896875E0,-2.050735474E-1,-9.847721558E0,6.245013428E-1,9.869634085E0
6.086836875E0,-2.059716797E-1,-9.843679962E0,6.141728210E-1,9.864971758E0
6.096776875E0,-2.164498901E-1,-9.819879456E0,5.915698242E-1,9.840062903E0
6.106717875E0,-1.930984497E-1,-9.769134979E0,5.936654663E-1,9.789061443E0
6.116657875E0,-1.880090332E-1,-9.745484161E0,6.228547668E-1,9.767177535E0
6.126597875E0,-1.977388000E-1,-9.746831360E0,6.542893982E-1,9.770768486E0
6.136537875E0,-1.850152588E-1,-9.764494629E0,6.599775696E-1,9.788521666E0
6.146478875E0,-1.514849854E-1,-9.769434357E0,6.671626282E-1,9.793360063E0
6.156418875E0,-6.945556641E-2,-9.779912567E0,6.358776855E-1,9.800808861E0
6.166358875E0,4.984634399E-2,-9.786199493E0,5.879772949E-1,9.803973811E0
6.176299875E0,1.799258423E-1,-9.798024902E0,5.685177612E-1,9.816153918E0
6.186239875E0,2.796185303E-1,-9.800719299E0,5.270539856E-1,9.818863030E0
6.196179875E0,3.227288818E-1,-9.839937744E0,5.538482666E-1,9.860794930E0
6.206119875E0,3.113525391E-1,-9.834848328E0,5.951623535E-1,9.857758379E0
6.216060875E0,2.441423035E-1,-9.824220428E0,6.195616150E-1,9.846764397E0
6.226000875E0,1.293310547E-1,-9.818382568E0,6.412664795E-1,9.840151700E0
6.235940875E0,3.008743286E-2,-9.820478210E0,6.649172974E-1,9.843008308E0
6.245880875E0,-3.083587646E-2,-9.809101868E0,6.622229004E-1,9.831478499E0
6.255821875E0,-1.089733887E-1,-9.790839844E0,6.758445740E-1,9.814743294E0
6.265761875E0,-1.579216003E-1,-9.754465485E0,6.827302551E-1,9.779604119E0
6.275701875E0,-2.332150269E-1,-9.747879181E0,6.617738342E-1,9.773099937E0
6.285642625E0,-3.008743286E-1,-9.744436340E0,6.478527832E-1,9.770582285E0
6.295582625E0,-3.155438232E-1,-9.771380310E0,6.313870239E-1,9.796840850E0
6.305522625E0,-3.020718384E-1,-9.786947937E0,6.015989685E-1,9.810072305E0
6.315462625E0,-2.743794250E-1,-9.821975098E0,5.785469055E-1,9.842824565E0
6.325403625E0,-2.254312134E-1,-9.837692413E0,5.830375671E-1,9.857532351E0
6.335343625E0,-1.628613281E-1,-9.845476227E0,5.623805237E-1,9.862869653E0
6.345283625E0,-1.107696533E-1,-9.851164398E0,5.474116516E-1,9.866983806E0
6.355224625E0,-1.071771240E-1,-9.817185059E0,5.504054260E-1,9.833186439E0
6.365164625E0,-8.502319336E-2,-9.796677704E0,5.751040649E-1,9.813911945E0
6.375104625E0,-1.049317932E-1,-9.786947937E0,6.249504089E-1,9.807442257E0
6.385044625E0,-1.236428833E-1,-9.803413696E0,6.489006042E-1,9.825643982E0
6.394985625E0,-1.258882141E-1,-9.804162140E0,6.625222778E-1,9.827328166E0
6.404925625E0,-1.383123779E-1,-9.817783813E0,6.424639893E-1,9.839754535E0
6.414865625E0,-1.094224548E-1,-9.810898132E0,6.319857788E-1,9.831841204E0
6.424805625E0,-8.367599487E-2,-9.805509338E0,6.463558960E-1,9.827145618E0
6.434746625E0,-5.448669434E-2,-9.792037354E0,6.342311096E-1,9.812706733E0
6.444686625E0,-7.828720093E-2,-9.779014435E0,6.264472961E-1,9.799371838E0
6.454626625E0,-6.256988525E-2,-9.776320038E0,6.224057007E-1,9.796312435E0
6.464567625E0,-5.837860107E-2,-9.806257782E0,6.240522766E-1,9.826267908E0
6.474507625E0,-6.706054688E-2,-9.817634125E0,6.316864014E-1,9.838163682E0
6.484447625E0,-6.601272583E-2,-9.810598755E0,6.466552734E-1,9.832109064E0
6.494387625E0,-4.505630493E-2,-9.801467743E0,6.276448059E-1,9.821646399E0
6.504328625E0,-5.298980713E-2,-9.804162140E0,6.216572571E-1,9.823994143E0
6.514268625E0,-5.239105225E-2,-9.837243347E0,5.998027039E-1,9.855651413E0
6.524208625E0,-7.050338745E-2,-9.856403503E0,6.236032104E-1,9.876362778E0
6.534149625E0,-1.043330383E-1,-9.846374359E0,6.319857788E-1,9.867187007E0
6.544089625E0,-1.031355286E-1,-9.837393036E0,6.421646118E-1,9.858869817E0
6.554029625E0,-1.522334290E-1,-9.785001984E0,6.550378418E-1,9.808084085E0
6.563969625E0,-1.740879822E-1,-9.772727509E0,7.003935242E-1,9.799339808E0
6.573910625E0,-2.317181396E-1,-9.784552917E0,7.445516968E-1,9.815575700E0
6.583850625E0,-2.679428101E-1,-9.767338715E0,7.575746155E-1,9.800337658E0
6.593790625E0,-2.707868958E-1,-9.773475952E0,7.116201782E-1,9.803089360E0
6.603730625E0,-2.859054565E-1,-9.775571594E0,6.993457031E-1,9.804724695E0
6.613671625E0,-3.094065857E-1,-9.772877197E0,6.783892822E-1,9.801279160E0
6.623611625E0,-2.956352234E-1,-9.784552917E0,6.571334839E-1,9.811049913E0
6.633551625E0,-2.706372070E-1,-9.810149689E0,6.324348450E-1,9.834238926E0
6.643492625E0,-2.149530029E-1,-9.788594513E0,6.204597473E-1,9.810594153E0
6.653432625E0,-1.683998108E-1,-9.765392761E0,6.158193970E-1,9.786239717E0
6.663372625E0,-9.445358276E-2,-9.776769104E0,6.161187744E-1,9.796618699E0
6.673312625E0,-1.736389160E-2,-9.796677704E0,6.279441833E-1,9.816797310E0
6.683253625E0,3.697311401E-2,-9.829160156E0,6.486012268E-1,9.850606070E0
6.693193625E0,5.478607178E-2,-9.836794281E0,6.587800598E-1,9.858981408E0
6.703133625E0,4.116439819E-2,-9.827812958E0,6.667135620E-1,9.850487755E0
6.713073625E0,1.706451416E-2,-9.849667511E0,7.137158203E-1,9.875506648E0
6.723014625E0,-4.191284180E-3,-9.864037628E0,7.223977661E-1,9.890455724E0
6.732954625E0,-1.437011719E-2,-9.852810974E0,6.965016174E-1,9.877408825E0
6.742894625E0,-4.924758911E-2,-9.775571594E0,6.767427063E-1,9.799092101E0
6.752835625E0,-1.053808594E-1,-9.744436340E0,6.468049622E-1,9.766447736E0
6.762775625E0,-1.374142456E-1,-9.758207703E0,6.161187744E-1,9.778604327E0
6.772715625E0,-1.544787598E-1,-9.769883423E0,6.060896301E-1,9.789884086E0
6.782655625E0,-1.908531189E-1,-9.795779572E0,5.757028198E-1,9.814537995E0
6.792596625E0,-2.001338196E-1,-9.813742218E0,5.539979553E-1,9.831403949E0
6.802536625E0,-1.904040527E-1,-9.803114319E0,5.622308350E-1,9.821069573E0
6.812476625E0,-1.694476318E-1,-9.798923035E0,5.598358154E-1,9.816364973E0
6.822417625E0,-1.371148682E-1,-9.808952179E0,5.803431702E-1,9.827061694E0
6.832357625E0,-1.547781372E-1,-9.843230896E0,5.956114197E-1,9.862449174E0
6.842297625E0,-1.440005493E-1,-9.870174866E0,5.751040649E-1,9.887964033E0
6.852237625E0,-1.216969299E-1,-9.880952454E0,5.649252319E-1,9.897836736E0
6.862178625E0,-1.246907043E-1,-9.854307861E0,5.673202515E-1,9.871412435E0
6.872118625E0,-1.154100037E-1,-9.821076965E0,5.453160095E-1,9.836881710E0
6.882058625E0,-1.357676697E-1,-9.770182800E0,5.361849976E-1,9.785826443E0
6.891998625E0,-1.383123779E-1,-9.762548676E0,5.453160095E-1,9.778745140E0
6.901939625E0,-1.085243225E-1,-9.757608948E0,5.780978394E-1,9.775321326E0
6.911879625E0,-9.834548950E-2,-9.798324280E0,5.960604858E-1,9.816930204E0
6.921819625E0,-8.532257080E-2,-9.840536499E0,5.878276062E-1,9.858447130E0
6.931760625E0,-3.592529297E-2,-9.804760895E0,5.846841431E-1,9.822244264E0
6.941700625E0,-1.302291870E-2,-9.765243073E0,6.053411865E-1,9.783996107E0
6.951640625E0,6.436614990E-3,-9.778864746E0,6.014492798E-1,9.797345477E0
6.961580625E0,3.218307495E-2,-9.811047821E0,6.258485413E-1,9.831041730E0
6.971521625E0,7.514373779E-2,-9.814041595E0,6.328839111E-1,9.834714081E0
6.981461625E0,6.167175293E-2,-9.785900116E0,6.557862854E-1,9.808042625E0
6.991401625E0,5.598358154E-2,-9.796378326E0,6.979985046E-1,9.821372836E0
7.001341625E0,4.805007935E-2,-9.776469727E0,7.200027466E-1,9.803064474E0
7.011282625E0,2.155517578E-2,-9.756860504E0,7.529342651E-1,9.785892986E0
7.021222625E0,-2.679428101E-2,-9.741741943E0,7.695497131E-1,9.772126728E0
7.031162625E0,-5.912704468E-2,-9.773925018E0,7.783813477E-1,9.805048893E0
7.041103625E0,-1.318757629E-1,-9.767787781E0,7.797285461E-1,9.799747239E0
7.051043625E0,-1.808239746E-1,-9.739346924E0,7.583230591E-1,9.770497924E0
7.060983625E0,-2.158511353E-1,-9.718390503E0,6.971003723E-1,9.745750592E0
7.070923625E0,-2.095642090E-1,-9.754764862E0,6.068380737E-1,9.775868612E0
7.080864625E0,-1.471440125E-1,-9.788893890E0,4.983137512E-1,9.802673694E0
7.090804625E0,-6.616241455E-2,-9.815239105E0,4.337979126E-1,9.825043348E0
7.100744625E0,-1.242416382E-2,-9.799671478E0,4.273612976E-1,9.808993482E0
7.110684625E0,-2.993774414E-3,-9.763895874E0,4.604425049E-1,9.774746999E0
7.120625625E0,1.002914429E-2,-9.770631866E0,5.051994324E-1,9.783689188E0
7.130565625E0,4.296066284E-2,-9.786648560E0,5.400769043E-1,9.801633472E0
7.140505625E0,7.319778442E-2,-9.796078949E0,6.340814209E-1,9.816851834E0
7.150446625E0,1.073268127E-1,-9.778116302E0,7.274871826E-1,9.805728686E0
7.160386625E0,9.969268799E-2,-9.762848053E0,8.363108826E-1,9.799109992E0
7.170326625E0,3.173400879E-2,-9.755213928E0,9.077124023E-1,9.797405148E0
7.180266625E0,-5.912704468E-2,-9.780511322E0,9.592053223E-1,9.827612761E0
7.190207625E0,-1.601669312E-1,-9.812395020E0,1.027014313E0,9.867294860E0
7.200147625E0,-2.621049500E-1,-9.858199768E0,1.014590149E0,9.913737683E0
7.210087625E0,-2.897973633E-1,-9.903705139E0,9.599537659E-1,9.954339216E0
7.220028625E0,-2.992277527E-1,-9.933044128E0,8.949888611E-1,9.977770691E0
7.229968625E0,-2.580633545E-1,-9.901459808E0,7.798782349E-1,9.935477497E0
7.239908625E0,-1.999841309E-1,-9.866282959E0,6.658154297E-1,9.890745334E0
7.249848625E0,-1.621128845E-1,-9.828711090E0,5.372328186E-1,9.844717435E0
7.259789625E0,-8.023315430E-2,-9.834399261E0,3.823049927E-1,9.842154403E0
7.269729625E0,5.538482666E-3,-9.876761169E0,2.680924988E-1,9.880400572E0
7.279669625E0,9.400451660E-2,-9.904603271E0,1.734892273E-1,9.906568595E0
7.289609042E0,1.974394226E-1,-9.902058563E0,1.145118713E-1,9.904688742E0
7.299550042E0,2.634521484E-1,-9.867181091E0,1.381626892E-1,9.871664432E0
7.309490042E0,2.853067017E-1,-9.838291168E0,2.080673218E-1,9.844626201E0
7.319430042E0,2.929408264E-1,-9.817334747E0,3.406915283E-1,9.827611438E0
7.329371042E0,2.710862732E-1,-9.827812958E0,5.150788879E-1,9.845034361E0
7.339311042E0,2.179467773E-1,-9.827962646E0,6.753955078E-1,9.853553150E0
7.349251042E0,1.318757629E-1,-9.797875214E0,8.186476135E-1,9.832900581E0
7.359191042E0,2.918930054E-2,-9.786498871E0,9.325607300E-1,9.830873902E0
7.369132042E0,-8.681945801E-2,-9.753118286E0,1.005908203E0,9.805238663E0
7.379072042E0,-1.770817566E-1,-9.747879181E0,1.024170227E0,9.803133740E0
7.389012042E0,-2.329156494E-1,-9.783205719E0,9.979747009E-1,9.836733063E0
7.398952042E0,-2.287243652E-1,-9.814340973E0,9.134005737E-1,9.859406888E0
7.408893042E0,-2.233355713E-1,-9.804910583E0,8.231382751E-1,9.841936138E0
7.418833042E0,-1.796264648E-1,-9.787846069E0,6.973997498E-1,9.814303987E0
7.428773042E0,-9.834548950E-2,-9.795330505E0,5.954617310E-1,9.813905758E0
7.438714042E0,-3.817062378E-2,-9.802665253E0,5.182223511E-1,9.816427938E0
7.448654042E0,-3.233276367E-2,-9.807155914E0,4.700225830E-1,9.818465958E0
7.458594042E0,-2.005828857E-2,-9.810748444E0,4.278103638E-1,9.820092111E0
7.468534042E0,-2.544708252E-2,-9.834099884E0,3.812571716E-1,9.841520468E0
7.478475042E0,-1.871109009E-2,-9.850715332E0,3.614982605E-1,9.857363930E0
7.488415042E0,-2.499801636E-2,-9.853409729E0,3.770658875E-1,9.860653471E0
7.498355042E0,-6.242019653E-2,-9.882449341E0,4.451742554E-1,9.892668061E0
7.508295042E0,-8.143066406E-2,-9.865384827E0,5.237608337E-1,9.879614068E0
7.518236042E0,-1.200503540E-1,-9.823621674E0,5.629792786E-1,9.840472577E0
7.528176042E0,-1.243913269E-1,-9.775571594E0,5.981561279E-1,9.794644657E0
7.538116042E0,-1.100212097E-1,-9.741442566E0,6.120771790E-1,9.761272786E0
7.548057042E0,-1.303788757E-1,-9.734856262E0,6.503974915E-1,9.757430092E0
7.557997042E0,-1.046324158E-1,-9.771979065E0,6.489006042E-1,9.794059158E0
7.567937042E0,-4.370910645E-2,-9.799970856E0,6.219566345E-1,9.819784586E0
7.577877042E0,4.131408691E-2,-9.785451050E0,5.870791626E-1,9.803133226E0
7.587818042E0,1.187031555E-1,-9.764494629E0,5.559439087E-1,9.781028546E0
7.597758042E0,1.642085266E-1,-9.776469727E0,5.819897461E-1,9.795153741E0
7.607698042E0,1.829196167E-1,-9.781708832E0,5.866300964E-1,9.800990875E0
7.617638042E0,1.731898499E-1,-9.803862762E0,6.004014587E-1,9.823757005E0
7.627579042E0,1.074765015E-1,-9.797276459E0,5.734574890E-1,9.814633498E0
7.637519042E0,2.080673218E-2,-9.798923035E0,5.560935974E-1,9.814711695E0
7.647459042E0,-3.218307495E-2,-9.779762878E0,5.601351929E-1,9.795843463E0
7.657400042E0,-7.439529419E-2,-9.763446808E0,5.366340637E-1,9.778466360E0
7.667340042E0,-1.064286804E-1,-9.791887665E0,5.501060486E-1,9.807905371E0
7.677280042E0,-1.260379028E-1,-9.783654785E0,5.902226257E-1,9.802252254E0
7.687220042E0,-1.528321838E-1,-9.759255524E0,6.307882690E-1,9.780813867E0
7.697161042E0,-1.694476318E-1,-9.755513306E0,6.646179199E-1,9.779594538E0
7.707101042E0,-1.902543640E-1,-9.777367859E0,6.469546509E-1,9.800595354E0
7.717041042E0,-1.984872437E-1,-9.792785797E0,6.243516541E-1,9.814676044E0
7.726982042E0,-1.670526123E-1,-9.804611206E0,5.938151550E-1,9.823997349E0
7.736922042E0,-1.619631958E-1,-9.811047821E0,5.658233643E-1,9.828684933E0
7.746862042E0,-1.219963074E-1,-9.803862762E0,5.396278381E-1,9.819460595E0
7.756802042E0,-8.277786255E-2,-9.807155914E0,5.051994324E-1,9.820508427E0
7.766743042E0,-5.074447632E-2,-9.830357666E0,5.046006775E-1,9.843430738E0
7.776683042E0,-3.802093506E-2,-9.835447083E0,4.858895874E-1,9.847515098E0
7.786623042E0,1.257385254E-2,-9.828561401E0,4.936734009E-1,9.840959849E0
7.796563042E0,3.023712158E-2,-9.827064514E0,5.131329346E-1,9.840498801E0
7.806504042E0,2.799179077E-2,-9.811347198E0,5.186714172E-1,9.825087146E0
7.816444042E0,4.999603271E-2,-9.809401245E0,5.192701721E-1,9.823262895E0
7.826384042E0,5.777984619E-2,-9.788295135E0,5.158273315E-1,9.802047644E0
7.836325042E0,3.293151855E-2,-9.808203735E0,5.607339478E-1,9.824274404E0
7.846265042E0,-4.640350342E-3,-9.794881439E0,5.789959717E-1,9.811980446E0
7.856205042E0,-3.951782227E-2,-9.780810699E0,6.039939880E-1,9.799521842E0
7.866145042E0,-3.412902832E-2,-9.764494629E0,6.075865173E-1,9.783439146E0
7.876086042E0,-3.173400879E-2,-9.775272217E0,6.185137939E-1,9.794871784E0
7.886026042E0,-4.535568237E-2,-9.809101868E0,6.018983459E-1,9.827655784E0
7.895966042E0,-8.921447754E-2,-9.802365875E0,5.614823914E-1,9.818838956E0
7.905906042E0,-1.182540894E-1,-9.774673462E0,5.742059326E-1,9.792238650E0
7.915847042E0,-1.293310547E-1,-9.770332489E0,5.959107971E-1,9.789342835E0
7.925787042E0,-1.639091492E-1,-9.777068481E0,6.072871399E-1,9.797281866E0
7.935727042E0,-1.540296936E-1,-9.793384552E0,6.201603699E-1,9.814209342E0
7.945668042E0,-1.667532349E-1,-9.800270233E0,6.219566345E-1,9.821401801E0
7.955608042E0,-1.517843628E-1,-9.813293152E0,5.855822754E-1,9.831920849E0
7.965548042E0,-1.350192261E-1,-9.814340973E0,5.677693176E-1,9.831677422E0
7.975488042E0,-1.038839722E-1,-9.844129028E0,5.275030518E-1,9.858799505E0
7.985429042E0,-7.244934082E-2,-9.824968872E0,4.873864746E-1,9.837317105E0
7.995369042E0,-5.373825073E-2,-9.804012451E0,4.532574463E-1,9.814631438E0
8.005309042E0,-5.089416504E-3,-9.814640350E0,4.294569397E-1,9.824032999E0
8.015249042E0,2.679428101E-2,-9.789642334E0,4.192781067E-1,9.798653433E0
8.025190042E0,4.610412598E-2,-9.789492645E0,4.278103638E-1,9.798944512E0
8.035130042E0,4.161346436E-2,-9.795480194E0,4.369413757E-1,9.805308852E0
8.045070042E0,2.380050659E-2,-9.795031128E0,4.951702881E-1,9.807568245E0
8.055011042E0,3.891906738E-3,-9.815837860E0,5.457650757E-1,9.830999316E0
8.064951042E0,-7.783813477E-3,-9.839937744E0,6.113287354E-1,9.858912629E0
8.074891042E0,-3.442840576E-3,-9.840386810E0,6.442602539E-1,9.861455050E0
8.084831042E0,1.197509766E-3,-9.823921051E0,6.348298645E-1,9.844411369E0
8.094772042E0,3.891906738E-3,-9.815837860E0,6.391708374E-1,9.836626830E0
8.104712042E0,1.556762695E-2,-9.813742218E0,6.360273743E-1,9.834343369E0
8.114652042E0,-2.005828857E-2,-9.786199493E0,6.420149231E-1,9.807256804E0
8.124593042E0,-3.173400879E-2,-9.767039337E0,6.475534058E-1,9.788533592E0
8.134533042E0,-3.876937866E-2,-9.773326263E0,6.421646118E-1,9.794477255E0
8.144473042E0,-2.424957275E-2,-9.806257782E0,6.066883850E-1,9.825036922E0
8.154413042E0,-3.996688843E-2,-9.828262024E0,5.849835205E-1,9.845737021E0
8.164354042E0,-2.050735474E-2,-9.827214203E0,5.963598633E-1,9.845313841E0
8.174294042E0,-4.715194702E-2,-9.841734009E0,5.694158936E-1,9.858305436E0
8.184234042E0,-4.700225830E-2,-9.828561401E0,5.749543762E-1,9.845476168E0
8.194174042E0,-9.160949707E-2,-9.817933502E0,6.165678406E-1,9.837701279E0
8.204115042E0,-8.816665649E-2,-9.800270233E0,5.885760498E-1,9.818324285E0
8.214055042E0,-1.178050232E-1,-9.802066498E0,5.809419250E-1,9.819973481E0
8.223995042E0,-1.431024170E-1,-9.800270233E0,5.647755432E-1,9.817573344E0
8.233936042E0,-1.335223389E-1,-9.790241089E0,5.704637146E-1,9.807755994E0
8.243876042E0,-1.116677856E-1,-9.786498871E0,5.882766724E-1,9.804799809E0
8.253816042E0,-1.065783691E-1,-9.794282684E0,5.936654663E-1,9.812837048E0
8.263756042E0,-7.679031372E-2,-9.810149689E0,5.942642212E-1,9.828432410E0
8.273697042E0,-7.723937988E-2,-9.818232880E0,5.912704468E-1,9.836323680E0
8.283637042E0,-8.277786255E-2,-9.807904358E0,5.933660889E-1,9.826185597E0
8.293577542E0,-4.640350342E-2,-9.816286926E0,6.256988525E-1,9.836317469E0
8.303517542E0,-3.727249146E-2,-9.791139221E0,6.117778015E-1,9.810304204E0
8.313458542E0,-5.748046875E-2,-9.805509338E0,6.242019653E-1,9.825525201E0
8.323398542E0,-5.733078003E-2,-9.807904358E0,6.412664795E-1,9.829013044E0
8.333338542E0,-6.167175293E-2,-9.790091400E0,6.749464417E-1,9.813523614E0
8.343279542E0,-7.484436035E-2,-9.789492645E0,6.997947693E-1,9.814758308E0
8.353219542E0,-9.819580078E-2,-9.789043579E0,6.926097107E-1,9.814006563E0
8.363159542E0,-5.852828979E-2,-9.795031128E0,6.670129395E-1,9.817890131E0
8.373099542E0,-5.867797852E-2,-9.799970856E0,6.641688538E-1,9.822626540E0
8.383040542E0,-5.089416504E-2,-9.806856537E0,6.635700989E-1,9.829412527E0
8.392980542E0,-5.673202515E-2,-9.812694397E0,6.432124329E-1,9.833916416E0
8.402920542E0,-5.748046875E-2,-9.823322296E0,6.512956238E-1,9.845057183E0
8.412860542E0,-4.071533203E-2,-9.816735992E0,6.189628601E-1,9.836314264E0
8.422801542E0,-3.038681030E-2,-9.781409454E0,5.959107971E-1,9.799592030E0
8.432741542E0,-4.266128540E-2,-9.788145447E0,6.005511475E-1,9.806644327E0
8.442681542E0,-4.849914551E-2,-9.780511322E0,5.990542603E-1,9.798960144E0
8.452622542E0,-3.023712158E-2,-9.797276459E0,5.683680725E-1,9.813795523E0
8.462562542E0,-2.110610962E-2,-9.812544708E0,5.628295898E-1,9.828695553E0
8.472502542E0,-2.200424194E-2,-9.822274475E0,5.496569824E-1,9.837666535E0
8.482442542E0,-3.338058472E-2,-9.823172607E0,5.632786560E-1,9.839365690E0
8.492383542E0,-3.068618774E-2,-9.796078949E0,5.725593567E-1,9.812845084E0
8.502323542E0,-4.251159668E-2,-9.783654785E0,5.890251160E-1,9.801462073E0
8.512263542E0,-4.251159668E-2,-9.793833618E0,6.523434448E-1,9.815627140E0
8.522203542E0,-3.891906738E-2,-9.803713074E0,6.695576477E-1,9.826627711E0
8.532144542E0,-3.068618774E-2,-9.824819183E0,6.692582703E-1,9.847635262E0
8.542084542E0,-4.625381470E-2,-9.825417938E0,6.782395935E-1,9.848907859E0
8.552024542E0,-3.308120728E-2,-9.821675720E0,6.993457031E-1,9.846598028E0
8.561965542E0,-7.499404907E-2,-9.818232880E0,7.000941467E-1,9.843447201E0
8.571905542E0,-1.347198486E-1,-9.843530273E0,6.557862854E-1,9.866270488E0
8.581845542E0,-1.836680603E-1,-9.824669495E0,6.171665955E-1,9.845748282E0
8.591785542E0,-1.948947144E-1,-9.820927277E0,5.599855042E-1,9.838809902E0
8.601726542E0,-1.980381775E-1,-9.778565369E0,4.957690430E-1,9.793127526E0
8.611666542E0,-2.004331970E-1,-9.752669220E0,4.391867065E-1,9.764610353E0
8.621606542E0,-1.538800049E-1,-9.762249298E0,4.128414917E-1,9.772186475E0
8.631547542E0,-8.322692871E-2,-9.801916809E0,4.040098572E-1,9.810592430E0
8.641487542E0,-3.757186890E-2,-9.826016693E0,4.572990417E-1,9.836723952E0
8.651427542E0,-6.286926270E-3,-9.830058289E0,5.234614563E-1,9.843987880E0
8.661367542E0,6.137237549E-3,-9.811646576E0,5.674699402E-1,9.828044990E0
8.671308542E0,1.347198486E-3,-9.786947937E0,6.312373352E-1,9.807283636E0
8.681248542E0,1.616638184E-2,-9.782756653E0,6.676116943E-1,9.805523671E0
8.691188542E0,4.161346436E-2,-9.766889648E0,6.643185425E-1,9.789544638E0
8.701128542E0,3.697311401E-2,-9.793384552E0,7.063810730E-1,9.818896181E0
8.711069542E0,2.589614868E-2,-9.795031128E0,7.268884277E-1,9.821999399E0
8.721009542E0,1.032852173E-2,-9.806557159E0,7.604187012E-1,9.836000539E0
8.730949542E0,-5.313949585E-2,-9.818083191E0,7.536827087E-1,9.847112215E0
8.740889542E0,-1.317260742E-1,-9.814041595E0,7.358697510E-1,9.842472682E0
8.750830542E0,-1.784289551E-1,-9.799821167E0,6.982978821E-1,9.826288808E0
8.760770542E0,-1.869612122E-1,-9.798623657E0,6.161187744E-1,9.819754702E0
8.770710542E0,-1.363664246E-1,-9.814490662E0,4.903802490E-1,9.827680069E0
8.780651542E0,-2.125579834E-2,-9.802365875E0,4.230203247E-1,9.811512358E0
8.790591542E0,4.745132446E-2,-9.782756653E0,4.165837097E-1,9.791737402E0
8.800531542E0,9.116043091E-2,-9.766739960E0,4.141886902E-1,9.775943532E0
8.810471542E0,1.285826111E-1,-9.765243073E0,4.945715332E-1,9.778604540E0
8.820412542E0,1.315763855E-1,-9.744885406E0,5.840853882E-1,9.763260709E0
8.830352542E0,9.220825195E-2,-9.731263733E0,6.972500610E-1,9.756646650E0
8.840292542E0,2.859054565E-2,-9.763596497E0,8.077203369E-1,9.796991687E0
8.850233542E0,-5.837860107E-3,-9.814939728E0,8.927435303E-1,9.855458739E0
8.860173542E0,-6.496490479E-2,-9.860295410E0,9.210346985E-1,9.903431271E0
8.870113542E0,-1.371148682E-1,-9.891430664E0,8.924441528E-1,9.932555443E0
8.880053542E0,-1.808239746E-1,-9.899663544E0,8.199948120E-1,9.935211476E0
8.889994542E0,-2.038760376E-1,-9.874964905E0,7.131170654E-1,9.902779067E0
8.899934542E0,-1.975891113E-1,-9.829010468E0,5.980064392E-1,9.849167474E0
8.909874542E0,-1.441502380E-1,-9.818382568E0,4.558021545E-1,9.830013792E0
8.919814542E0,-6.451583862E-2,-9.829459534E0,3.406915283E-1,9.835573584E0
8.929755542E0,3.742218018E-2,-9.813293152E0,2.444416809E-1,9.816408439E0
8.939695542E0,1.291813660E-1,-9.789941711E0,1.908531189E-1,9.792653953E0
8.949635542E0,1.791773987E-1,-9.780661011E0,1.942959595E-1,9.784231460E0
8.959576542E0,1.981878662E-1,-9.788295135E0,2.673440552E-1,9.793950834E0
8.969516542E0,1.683998108E-1,-9.835297394E0,3.787124634E-1,9.844026435E0
8.979456542E0,1.339714050E-1,-9.858648834E0,4.843927002E-1,9.871450829E0
8.989396542E0,7.783813477E-2,-9.861193542E0,6.116281128E-1,9.880449676E0
8.999337542E0,5.987548828E-4,-9.839039612E0,7.104226685E-1,9.864654135E0
9.009277542E0,-7.155120850E-2,-9.797575836E0,8.020321655E-1,9.830608701E0
9.019217542E0,-1.444496155E-1,-9.749525757E0,8.499325562E-1,9.787568826E0
9.029157542E0,-2.100132751E-1,-9.730066223E0,8.819659424E-1,9.772213578E0
9.039098542E0,-2.112107849E-1,-9.731712799E0,8.695417786E-1,9.772765571E0
9.049038542E0,-2.077679443E-1,-9.718989258E0,8.285270691E-1,9.756453086E0
9.058978542E0,-1.963916016E-1,-9.746382294E0,7.622149658E-1,9.778113782E0
9.068919542E0,-1.296304321E-1,-9.756561127E0,6.891668701E-1,9.781729911E0
9.078859542E0,-6.077362061E-2,-9.781110077E0,6.204597473E-1,9.800958018E0
9.088799542E0,-3.143463135E-3,-9.814041595E0,5.571414185E-1,9.829843787E0
9.098739542E0,4.894821167E-2,-9.849218445E0,4.956193542E-1,9.861801988E0
9.108680542E0,7.484436035E-2,-9.849517822E0,4.574487305E-1,9.860418974E0
9.118620542E0,7.589218140E-2,-9.860295410E0,4.483177185E-1,9.870773727E0
9.128560542E0,5.583389282E-2,-9.837243347E0,4.487667847E-1,9.847632493E0
9.138500542E0,1.990859985E-2,-9.823921051E0,4.432283020E-1,9.833934741E0
9.148441542E0,-3.742218018E-2,-9.829758911E0,4.580474854E-1,9.840496338E0
9.158381542E0,-8.187973022E-2,-9.796378326E0,4.686753845E-1,9.807924817E0
9.168321542E0,-1.222956848E-1,-9.768386536E0,4.908293152E-1,9.781474590E0
9.178262542E0,-1.257385254E-1,-9.777966614E0,5.155279541E-1,9.792354689E0
9.188202542E0,-9.849517822E-2,-9.775122528E0,5.468128967E-1,9.790900167E0
9.198142542E0,-8.816665649E-2,-9.773775330E0,5.789959717E-1,9.791307057E0
9.208082542E0,-6.092330933E-2,-9.787247314E0,6.081852722E-1,9.806314852E0
9.218023542E0,-1.017883301E-2,-9.793833618E0,6.024971008E-1,9.812353607E0
9.227963542E0,2.993774414E-2,-9.816137238E0,6.021977234E-1,9.834637189E0
9.237903542E0,4.610412598E-2,-9.839937744E0,6.204597473E-1,9.859587755E0
9.247843542E0,5.284011841E-2,-9.823172607E0,6.420149231E-1,9.844272208E0
9.257784542E0,4.715194702E-2,-9.798923035E0,6.475534058E-1,9.820409429E0
9.267724542E0,8.831634521E-3,-9.804461517E0,6.433621216E-1,9.825551306E0
9.277664542E0,-3.113525391E-2,-9.791438599E0,6.439608765E-1,9.812641074E0
9.287605542E0,-8.981323242E-2,-9.817933502E0,6.541397095E-1,9.840110946E0
9.297544792E0,-1.185534668E-1,-9.809700623E0,6.370751953E-1,9.831080614E0
9.307484792E0,-1.775308228E-1,-9.777218170E0,6.038442993E-1,9.797455806E0
9.317424792E0,-1.960922241E-1,-9.768536224E0,5.792953491E-1,9.787662399E0
9.327365792E0,-2.231858826E-1,-9.781559143E0,5.875282288E-1,9.801729471E0
9.337305792E0,-2.766247559E-1,-9.765392761E0,5.888754272E-1,9.787042010E0
9.347245792E0,-2.800675964E-1,-9.758507080E0,5.929170227E-1,9.780513733E0
9.357185792E0,-2.625540161E-1,-9.794881439E0,5.957611084E-1,9.816494706E0
9.367126792E0,-2.436932373E-1,-9.827064514E0,5.680686951E-1,9.846485942E0
9.377066792E0,-2.020797729E-1,-9.825717316E0,5.447172546E-1,9.842879350E0
9.387006792E0,-1.199006653E-1,-9.830357666E0,5.053491211E-1,9.844068557E0
9.396947792E0,-4.834945679E-2,-9.817634125E0,5.019062805E-1,9.830574113E0
9.406887792E0,7.783813477E-3,-9.808652802E0,5.423222351E-1,9.823636993E0
9.416827792E0,8.442443848E-2,-9.806108093E0,5.535488892E-1,9.822082254E0
9.426767792E0,1.041833496E-1,-9.810299377E0,5.890251160E-1,9.828518639E0
9.436708792E0,1.074765015E-1,-9.820478210E0,6.568341064E-1,9.843006376E0
9.446648792E0,9.325607300E-2,-9.819879456E0,7.077282715E-1,9.845791412E0
9.456588792E0,5.733078003E-2,-9.818382568E0,7.590715027E-1,9.847848121E0
9.466528792E0,1.077758789E-2,-9.824070740E0,7.988887024E-1,9.856505730E0
9.476469792E0,-8.547225952E-2,-9.826765137E0,8.327183533E-1,9.862354608E0
9.486409792E0,-1.234931946E-1,-9.832453308E0,8.479866028E-1,9.869724915E0
9.496349792E0,-1.754351807E-1,-9.821226654E0,8.277786255E-1,9.857610661E0
9.506290792E0,-2.046244812E-1,-9.804311829E0,7.734416199E-1,9.836900607E0
9.516230792E0,-2.157014465E-1,-9.786947937E0,7.183561707E-1,9.815646317E0
9.526170792E0,-2.415975952E-1,-9.783954163E0,6.581813049E-1,9.809043332E0
9.536110792E0,-2.547702026E-1,-9.777816925E0,5.818400574E-1,9.798425870E0
9.546051792E0,-2.212399292E-1,-9.790989532E0,5.188211060E-1,9.807221751E0
9.555991792E0,-2.207908630E-1,-9.812245331E0,4.595443726E-1,9.825481569E0
9.565931792E0,-1.966909790E-1,-9.817933502E0,4.291575623E-1,9.829276769E0
9.575872792E0,-1.872605896E-1,-9.796677704E0,4.421804810E-1,9.808439434E0
9.585812792E0,-1.362167358E-1,-9.818532257E0,4.647834778E-1,9.830470709E0
9.595752792E0,-1.064286804E-1,-9.813293152E0,5.185217285E-1,9.827558920E0
9.605692792E0,-6.721023560E-2,-9.796827393E0,5.348377991E-1,9.811645919E0
9.615633792E0,-7.244934082E-2,-9.808952179E0,5.599855042E-1,9.825190864E0
9.625573792E0,-4.161346436E-2,-9.803114319E0,6.215075684E-1,9.822884184E0
9.635513792E0,-3.353027344E-2,-9.802365875E0,6.795867920E-1,9.825952332E0
9.645453792E0,-5.239105225E-3,-9.809850311E0,7.204518127E-1,9.836271722E0
9.655394792E0,1.272354126E-2,-9.800868988E0,7.500901794E-1,9.829538651E0
9.665334792E0,-5.688171387E-3,-9.805659027E0,7.608677673E-1,9.835136047E0
9.675274792E0,-1.092727661E-2,-9.806706848E0,7.744894409E-1,9.837248218E0
9.685215792E0,-4.460723877E-2,-9.813143463E0,7.521858215E-1,9.842030174E0
9.695155792E0,-7.454498291E-2,-9.820627899E0,7.159611511E-1,9.846973629E0
9.705095792E0,-1.023870850E-1,-9.819131012E0,6.831793213E-1,9.843401390E0
9.715035792E0,-1.243913269E-1,-9.809101868E0,6.280938721E-1,9.829977343E0
9.724976792E0,-1.029858398E-1,-9.793534241E0,5.971083069E-1,9.812260562E0
9.734916792E0,-8.502319336E-2,-9.795330505E0,5.516029358E-1,9.811217786E0
9.744856792E0,-6.990463257E-2,-9.797575836E0,5.087919617E-1,9.811026867E0
9.754796792E0,-6.361770630E-2,-9.804760895E0,4.815486145E-1,9.816785242E0
9.764737792E0,-7.514373779E-2,-9.807305603E0,4.812492371E-1,9.819393596E0
9.774677792E0,-7.170089722E-2,-9.819131012E0,4.917274475E-1,9.831697246E0
9.784617792E0,-9.145980835E-2,-9.795480194E0,5.327421570E-1,9.810382833E0
9.794558792E0,-1.074765015E-1,-9.804611206E0,5.825885010E-1,9.822492630E0
9.804498792E0,-1.131646729E-1,-9.802216187E0,6.056405640E-1,9.821560411E0
9.814438792E0,-1.133143616E-1,-9.776619415E0,6.460565186E-1,9.798597673E0
9.824378792E0,-1.573228455E-1,-9.781858521E0,6.628216553E-1,9.805551445E0
9.834319792E0,-1.465452576E-1,-9.789043579E0,6.722520447E-1,9.813193798E0
9.844259792E0,-9.924362183E-2,-9.793384552E0,6.656657410E-1,9.816483136E0
9.854199792E0,-6.481521606E-2,-9.798324280E0,6.652166748E-1,9.821093265E0
9.864139792E0,-5.987548828E-2,-9.806108093E0,6.400689697E-1,9.827157743E0
9.874080792E0,-1.347198486E-2,-9.800270233E0,6.227050781E-1,9.820042757E0
9.884020792E0,6.885681152E-3,-9.822723541E0,6.113287354E-1,9.841730945E0
9.893960792E0,5.987548828E-3,-9.820927277E0,6.087840271E-1,9.839779795E0
9.903901792E0,-4.191284180E-3,-9.836794281E0,5.833369446E-1,9.854076379E0
9.913841792E0,-5.358856201E-2,-9.827214203E0,5.751040649E-1,9.844173678E0
9.923781792E0,-8.532257080E-2,-9.796078949E0,5.505551147E-1,9.811908767E0
9.933721792E0,-7.783813477E-2,-9.792636108E0,5.403762817E-1,9.807843150E0
9.943662792E0,-8.487350464E-2,-9.788444824E0,5.206173706E-1,9.802647501E0
9.953602792E0,-7.723937988E-2,-9.790241089E0,5.222639465E-1,9.804465622E0
9.963542792E0,-8.532257080E-2,-9.801018677E0,4.968168640E-1,9.813973407E0
9.973482792E0,-6.466552734E-2,-9.812694397E0,5.468128967E-1,9.828130916E0
9.983423792E0,-6.346801758E-2,-9.823322296E0,5.695655823E-1,9.840025105E0
9.993363792E0,-5.852828979E-2,-9.817185059E0,5.800437927E-1,9.834480100E0
1.000330379E1,-5.837860107E-2,-9.794731750E0,6.008505249E-1,9.813317455E0
1.001324479E1,-7.304809570E-2,-9.785001984E0,6.062393188E-1,9.804036207E0
1.002318479E1,-9.550140381E-2,-9.779762878E0,5.923182678E-1,9.798148979E0
1.003312479E1,-7.544311523E-2,-9.781110077E0,5.896238708E-1,9.799156204E0
1.004306479E1,-8.891510010E-2,-9.791588287E0,5.640270996E-1,9.808222757E0
1.005300579E1,-8.831634521E-2,-9.798473969E0,5.554948425E-1,9.814604750E0
1.006294579E1,-8.696914673E-2,-9.786199493E0,5.360353088E-1,9.801254920E0
1.007288579E1,-4.071533203E-2,-9.784852295E0,5.526507568E-1,9.800531365E0
1.008282579E1,1.182540894E-2,-9.799970856E0,5.622308350E-1,9.816092508E0
1.009276679E1,1.601669312E-2,-9.805209961E0,5.709127808E-1,9.821829785E0
1.010270679E1,3.353027344E-2,-9.797126770E0,5.825885010E-1,9.814490643E0
1.011264679E1,4.640350342E-3,-9.811047821E0,5.801934814E-1,9.828189322E0
1.012258779E1,-5.538482666E-3,-9.827812958E0,5.764512634E-1,9.844705900E0
1.013252779E1,-4.580474854E-2,-9.822873230E0,5.701643372E-1,9.839513399E0
1.014246779E1,-7.873626709E-2,-9.822274475E0,5.822891235E-1,9.839834139E0
1.015240779E1,-6.406677246E-2,-9.833052063E0,5.616320801E-1,9.849286676E0
1.016234879E1,-6.721023560E-2,-9.822424164E0,5.312452698E-1,9.837009465E0
1.017228879E1,-7.708969116E-2,-9.799671478E0,5.171745300E-1,9.813611639E0
1.018222879E1,-5.149291992E-2,-9.801767120E0,5.135820007E-1,9.815348016E0
1.019216879E1,-4.685256958E-2,-9.794582062E0,5.177732849E-1,9.808370002E0
1.020210979E1,-4.266128540E-2,-9.798473969E0,5.156776428E-1,9.812126962E0
1.021204979E1,-2.140548706E-2,-9.809700623E0,5.355862427E-1,9.824333928E0
1.022198979E1,-3.472778320E-2,-9.811945953E0,5.110372925E-1,9.825306536E0
1.023193079E1,-2.978805542E-2,-9.798024902E0,5.176235962E-1,9.811733461E0
1.024187079E1,-2.439926147E-2,-9.799072723E0,5.304968262E-1,9.813452422E0
1.025181079E1,-3.353027344E-2,-9.798324280E0,5.590873718E-1,9.814319215E0
1.026175079E1,-1.526824951E-2,-9.805659027E0,5.917195129E-1,9.823508236E0
1.027169179E1,1.347198486E-3,-9.793833618E0,6.054908752E-1,9.812532698E0
1.028163179E1,-7.783813477E-3,-9.816586304E0,6.277944946E-1,9.836643390E0
1.029157225E1,-9.580078125E-3,-9.819580078E0,6.441105652E-1,9.840687126E0
1.030151225E1,1.347198486E-3,-9.795480194E0,6.408174133E-1,9.816418950E0
1.031145325E1,-3.442840576E-2,-9.789492645E0,6.240522766E-1,9.809423674E0
1.032139325E1,-3.966751099E-2,-9.796977081E0,5.894741821E-1,9.814775252E0
1.033133325E1,-5.568420410E-2,-9.785600739E0,5.698649597E-1,9.802337916E0
1.034127425E1,-5.553451538E-2,-9.802814941E0,5.412744141E-1,9.817904198E0
1.035121425E1,-4.146377563E-2,-9.805359650E0,5.105882263E-1,9.818731967E0
1.036115425E1,-2.739303589E-2,-9.812544708E0,5.065466309E-1,9.825648758E0
1.037109425E1,-2.110610962E-2,-9.821076965E0,5.004093933E-1,9.833839931E0
1.038103525E1,-9.430389404E-3,-9.811646576E0,5.095404053E-1,9.824872971E0
1.039097525E1,1.392105103E-2,-9.825717316E0,5.260061646E-1,9.839796596E0
1.040091525E1,-5.538482666E-3,-9.822573853E0,5.454656982E-1,9.837709113E0
1.041085625E1,-2.829116821E-2,-9.818831635E0,5.508544922E-1,9.834312163E0
1.042079625E1,-4.520599365E-2,-9.812395020E0,5.715115356E-1,9.829128397E0
1.043073625E1,-5.254074097E-2,-9.801318054E0,5.782475281E-1,9.818501226E0
1.044067625E1,-7.978408813E-2,-9.804910583E0,5.894741821E-1,9.822938301E0
1.045061725E1,-6.391708374E-2,-9.820478210E0,5.906716919E-1,9.838433347E0
1.046055725E1,-6.242019653E-2,-9.816286926E0,5.893244934E-1,9.834159276E0
1.047049725E1,-7.334747314E-2,-9.820478210E0,5.900729370E-1,9.838463203E0
1.048043725E1,-6.391708374E-2,-9.825867004E0,5.803431702E-1,9.843197955E0
1.049037825E1,-8.367599487E-2,-9.824519806E0,5.752537537E-1,9.841702493E0
1.050031825E1,-6.511459351E-2,-9.828561401E0,5.331912231E-1,9.843228739E0
1.051025825E1,-6.466552734E-2,-9.814790039E0,5.294490051E-1,9.829272679E0
1.052019825E1,-6.481521606E-2,-9.805060272E0,5.429209900E-1,9.820293843E0
1.053013925E1,-6.900650024E-2,-9.796827393E0,5.945635986E-1,9.815095248E0
1.054007925E1,-9.654922485E-2,-9.784852295E0,6.454577637E-1,9.806593288E0
1.055001925E1,-1.157093811E-1,-9.774523773E0,6.973997498E-1,9.800054595E0
1.055996025E1,-1.347198486E-1,-9.768236847E0,7.229965210E-1,9.795883039E0
1.056990025E1,-1.309776306E-1,-9.772727509E0,7.083270264E-1,9.799239015E0
1.057984025E1,-1.055305481E-1,-9.798923035E0,7.051835632E-1,9.824831459E0
1.058978025E1,-4.116439819E-2,-9.833950195E0,6.610253906E-1,9.856227753E0
1.059972125E1,7.035369873E-3,-9.830507355E0,6.322851562E-1,9.850822751E0
1.060966125E1,4.146377563E-2,-9.794282684E0,5.980064392E-1,9.812609451E0
1.061960125E1,2.065704346E-2,-9.806856537E0,5.279521179E-1,9.821079130E0
1.062954225E1,2.634521484E-2,-9.805958405E0,5.068460083E-1,9.819083826E0
1.063948225E1,2.110610962E-2,-9.850565643E0,4.854405212E-1,9.862542343E0
1.064942225E1,1.661544800E-2,-9.854158173E0,4.695735168E-1,9.865353955E0
1.065936225E1,-1.796264648E-3,-9.842332764E0,4.592449951E-1,9.853041329E0
1.066930325E1,1.945953369E-3,-9.809101868E0,4.673281860E-1,9.820228046E0
1.067924325E1,3.891906738E-2,-9.798473969E0,4.800517273E-1,9.810303587E0
1.068918325E1,3.996688843E-2,-9.777816925E0,5.004093933E-1,9.790695110E0
1.069912325E1,4.206253052E-2,-9.785301361E0,5.295986938E-1,9.799712586E0
1.070906425E1,1.930984497E-2,-9.779164124E0,5.707630920E-1,9.795825352E0
1.071900425E1,-5.688171387E-3,-9.785900116E0,6.010002136E-1,9.804339585E0
1.072894425E1,-9.580078125E-3,-9.776469727E0,6.423143005E-1,9.797551722E0
1.073888525E1,-2.604583740E-2,-9.793384552E0,6.539900208E-1,9.815231139E0
1.074882525E1,-2.215393066E-2,-9.807604980E0,6.490502930E-1,9.829082995E0
1.075876525E1,-5.224136353E-2,-9.815089417E0,6.331832886E-1,9.835630661E0
1.076870525E1,-6.092330933E-2,-9.831255798E0,6.004014587E-1,9.849760613E0
1.077864625E1,-4.954696655E-2,-9.828860779E0,5.686674500E-1,9.845422377E0
1.078858625E1,-3.936813354E-2,-9.849068756E0,5.263055420E-1,9.863199417E0
1.079852625E1,-7.259902954E-2,-9.858199768E0,4.945715332E-1,9.870864921E0
1.080846625E1,-8.532257080E-2,-9.823921051E0,4.635859680E-1,9.835223267E0
1.081840725E1,-8.607101440E-2,-9.811496887E0,4.516108704E-1,9.822262049E0
1.082834725E1,-7.694000244E-2,-9.795480194E0,4.577481079E-1,9.806471604E0
1.083828725E1,-6.391708374E-2,-9.808652802E0,4.707710266E-1,9.820151757E0
1.084822825E1,-8.577163696E-2,-9.810149689E0,4.571493530E-1,9.821169952E0
1.085816825E1,-9.295669556E-2,-9.820627899E0,4.710704041E-1,9.832358853E0
1.086810825E1,-8.083190918E-2,-9.828411713E0,4.870870972E-1,9.840806086E0
1.087804825E1,-9.430389404E-2,-9.815239105E0,5.312452698E-1,9.830057653E0
1.088798925E1,-1.019380188E-1,-9.826316071E0,5.420228577E-1,9.841781732E0
1.089792925E1,-9.490264893E-2,-9.808952179E0,5.442681885E-1,9.824498828E0
1.090786925E1,-3.113525391E-2,-9.787247314E0,5.601351929E-1,9.803312238E0
1.091780925E1,6.406677246E-2,-9.758058014E0,5.746549988E-1,9.775174122E0
1.092775025E1,1.245410156E-1,-9.756710815E0,5.649252319E-1,9.773845554E0
1.093769025E1,1.609153748E-1,-9.770781555E0,5.737568665E-1,9.788935739E0
1.094763025E1,1.781295776E-1,-9.780511322E0,6.152206421E-1,9.801460519E0
1.095757125E1,1.529818726E-1,-9.792785797E0,6.475534058E-1,9.815364615E0
1.096751125E1,9.145980835E-2,-9.811197510E0,6.804849243E-1,9.835192993E0
1.097745125E1,2.739303589E-2,-9.814490662E0,6.932084656E-1,9.838979383E0
1.098739125E1,-4.191284180E-2,-9.815987549E0,6.878196716E-1,9.840145535E0
1.099733225E1,-8.173004150E-2,-9.822124786E0,6.671626282E-1,9.845096297E0
1.100727225E1,-9.041198730E-2,-9.808203735E0,5.872288513E-1,9.826183011E0
1.101721225E1,-8.696914673E-2,-9.793384552E0,5.219645691E-1,9.807670041E0
1.102715325E1,-7.903564453E-2,-9.791139221E0,4.629872131E-1,9.802398229E0
1.103709325E1,-7.274871826E-2,-9.795480194E0,4.213737488E-1,9.804809047E0
1.104703325E1,-7.753875732E-2,-9.803563385E0,3.999682617E-1,9.812025373E0
1.105697325E1,-7.858657837E-2,-9.821376343E0,3.790118408E-1,9.829000920E0
1.106691425E1,-7.888595581E-2,-9.821226654E0,3.671864319E-1,9.828404848E0
1.107685425E1,-6.137237549E-2,-9.804162140E0,3.686833191E-1,9.811283770E0
1.108679425E1,-5.957611084E-2,-9.809550934E0,4.441264343E-1,9.819780401E0
1.109673425E1,-6.092330933E-2,-9.794731750E0,4.698728943E-1,9.806184898E0
1.110667525E1,-6.391708374E-2,-9.812395020E0,5.180726624E-1,9.826269928E0
1.111661525E1,-5.388793945E-2,-9.806407471E0,5.396278381E-1,9.821391429E0
1.112655525E1,-8.577163696E-2,-9.807604980E0,5.481600952E-1,9.823286197E0
1.113649525E1,-8.262817383E-2,-9.790839844E0,5.718109131E-1,9.807871328E0
1.114643625E1,-6.691085815E-2,-9.782906342E0,6.072871399E-1,9.801965681E0
1.115637625E1,-6.496490479E-2,-9.788893890E0,6.222560120E-1,9.808866733E0
1.116631625E1,-2.230361938E-2,-9.793833618E0,6.065386963E-1,9.812622666E0
1.117625725E1,9.430389404E-3,-9.803413696E0,5.962101746E-1,9.821531225E0
1.118619725E1,2.829116821E-2,-9.825867004E0,5.580395508E-1,9.841741254E0
1.119613725E1,4.640350342E-2,-9.822873230E0,5.339396667E-1,9.837483588E0
1.120607725E1,3.338058472E-2,-9.827962646E0,5.170248413E-1,9.841609560E0
1.121601825E1,5.044509888E-2,-9.832752686E0,5.014572144E-1,9.845660436E0
1.122595825E1,4.116439819E-2,-9.822124786E0,4.679269409E-1,9.833350673E0
1.123589825E1,3.293151855E-2,-9.819280701E0,4.550537109E-1,9.829874457E0
1.124583925E1,2.574645996E-2,-9.802665253E0,4.598437500E-1,9.813478752E0
1.125577925E1,4.191284180E-3,-9.789941711E0,4.477189636E-1,9.800174924E0
1.126571925E1,-2.424957275E-2,-9.793833618E0,4.703219604E-1,9.805150062E0
1.127565925E1,-4.879852295E-2,-9.807754669E0,4.953199768E-1,9.820375493E0
1.128560025E1,-3.248245239E-2,-9.808802490E0,5.049000549E-1,9.821842264E0
1.129554025E1,-2.095642090E-2,-9.824819183E0,5.047503662E-1,9.837798742E0
1.130548025E1,9.131011963E-3,-9.810449066E0,5.001100159E-1,9.823192164E0
1.131542025E1,2.679428101E-2,-9.842332764E0,5.363346863E-1,9.856971495E0
1.132536125E1,3.502716064E-2,-9.848170624E0,5.520520020E-1,9.863693677E0
1.133530125E1,4.086502075E-2,-9.825268250E0,5.520520020E-1,9.840849940E0
1.134524125E1,2.395019531E-2,-9.789043579E0,5.553451538E-1,9.804812902E0
1.135518225E1,3.562591553E-2,-9.784403229E0,5.499563599E-1,9.799911619E0
1.136512225E1,6.286926270E-3,-9.781409454E0,5.872288513E-1,9.799022817E0
1.137506225E1,-4.340972900E-3,-9.792336731E0,5.529501343E-1,9.807937161E0
1.138500225E1,-5.239105225E-3,-9.796977081E0,5.087919617E-1,9.810181275E0
1.139494325E1,-8.232879639E-3,-9.822274475E0,4.828958130E-1,9.834141143E0
1.140488325E1,-3.203338623E-2,-9.840536499E0,4.808001709E-1,9.852327315E0
1.141482325E1,-4.969665527E-2,-9.833950195E0,4.821473694E-1,9.845888090E0
1.142476325E1,-7.379653931E-2,-9.809850311E0,4.969665527E-1,9.822707611E0
1.143470425E1,-8.966354370E-2,-9.799970856E0,5.228627014E-1,9.814318811E0
1.144464425E1,-1.098715210E-1,-9.793534241E0,5.424719238E-1,9.809162067E0
1.145458425E1,-7.738906860E-2,-9.800569611E0,5.441184998E-1,9.815967538E0
1.146452525E1,-4.595443726E-2,-9.810149689E0,5.186714172E-1,9.823958915E0
1.147446525E1,-1.601669312E-2,-9.823022919E0,4.915777588E-1,9.835328387E0
1.148440525E1,1.601669312E-2,-9.822723541E0,4.996609497E-1,9.835436715E0
1.149434525E1,3.487747192E-2,-9.800868988E0,5.236111450E-1,9.814907946E0
1.150428625E1,7.304809570E-2,-9.803713074E0,5.420228577E-1,9.818956912E0
1.151422625E1,8.592132568E-2,-9.807754669E0,5.248086548E-1,9.822161587E0
1.152416625E1,1.059796143E-1,-9.819729767E0,5.236111450E-1,9.834251014E0
1.153410625E1,1.279838562E-1,-9.815089417E0,5.219645691E-1,9.829791815E0
1.154404725E1,1.230441284E-1,-9.813293152E0,5.063969421E-1,9.827120647E0
1.155398725E1,9.789642334E-2,-9.812844086E0,5.152285767E-1,9.826848592E0
1.156392725E1,3.367996216E-2,-9.820627899E0,5.400769043E-1,9.835524884E0
1.157386825E1,-4.984634399E-2,-9.818681946E0,5.611830139E-1,9.834832291E0
1.158380825E1,-9.310638428E-2,-9.819280701E0,5.725593567E-1,9.836400078E0
1.159374825E1,-1.297801208E-1,-9.793234863E0,5.448669434E-1,9.809239112E0
1.160368825E1,-1.236428833E-1,-9.762848053E0,5.108876038E-1,9.776988075E0
1.161362925E1,-1.166075134E-1,-9.782457275E0,5.010081482E-1,9.795972480E0
1.162356925E1,-1.161584473E-1,-9.807904358E0,4.734654236E-1,9.820012739E0
1.163350925E1,-9.744735718E-2,-9.842033386E0,4.469705200E-1,9.852659530E0
1.164344925E1,-7.020401001E-2,-9.834399261E0,4.285588074E-1,9.843982938E0
1.165339025E1,-1.541793823E-2,-9.811945953E0,4.053570557E-1,9.820327665E0
1.166333025E1,-7.035369873E-3,-9.798623657E0,4.493655396E-1,9.808924735E0
1.167327025E1,-8.981323242E-4,-9.797276459E0,5.051994324E-1,9.810293231E0
1.168321125E1,-2.529739380E-2,-9.808054047E0,5.498066711E-1,9.823484693E0
1.169315125E1,-3.338058472E-2,-9.825567627E0,5.894741821E-1,9.843290774E0
1.170309125E1,-4.460723877E-2,-9.823621674E0,5.957611084E-1,9.841771380E0
1.171303125E1,-4.954696655E-2,-9.833950195E0,5.460644531E-1,9.849224220E0
1.172297225E1,-8.232879639E-2,-9.822723541E0,5.105882263E-1,9.836329404E0
1.173291225E1,-9.475296021E-2,-9.807455292E0,4.989125061E-1,9.820594234E0
1.174285225E1,-6.436614990E-2,-9.783654785E0,4.885839844E-1,9.796058303E0
1.175279225E1,-6.676116943E-2,-9.806706848E0,4.418811035E-1,9.816884188E0
1.176273325E1,-3.712280273E-2,-9.820178833E0,3.962260437E-1,9.828239186E0
1.177267325E1,3.323089600E-2,-9.829908600E0,3.403921509E-1,9.835856556E0
1.178261325E1,8.637039185E-2,-9.833950195E0,2.986289978E-1,9.838862514E0
1.179255425E1,1.326242065E-1,-9.883946228E0,3.121009827E-1,9.889761840E0
1.180249425E1,1.318757629E-1,-9.919123077E0,3.647914124E-1,9.926704721E0
1.181243425E1,1.137634277E-1,-9.872719574E0,4.496649170E-1,9.883609282E0
1.182237425E1,3.158432007E-2,-9.754465485E0,5.284011841E-1,9.768817854E0
1.183231525E1,-1.646575928E-2,-9.609716492E0,5.757028198E-1,9.626959848E0
1.184225525E1,-7.454498291E-2,-9.667196960E0,6.017486572E-1,9.686194065E0
1.185219525E1,-9.505233765E-2,-9.819430389E0,5.478607178E-1,9.835161386E0
1.186213525E1,-6.900650024E-2,-9.901010742E0,4.583468628E-1,9.911854391E0
1.187207625E1,-8.442443848E-2,-9.901759186E0,4.201762390E-1,9.911029741E0
1.188201625E1,-6.795867920E-2,-9.895322571E0,4.290078735E-1,9.904851080E0
1.189195625E1,-2.963836670E-2,-9.914333038E0,4.331991577E-1,9.923836936E0
1.190189725E1,1.068777466E-1,-9.885443115E0,4.305047607E-1,9.895389976E0
1.191183725E1,2.326162720E-1,-9.863588562E0,4.351451111E-1,9.875922282E0
1.192177725E1,2.329156494E-1,-9.834099884E0,4.839436340E-1,9.848754828E0
1.193171725E1,2.022294617E-1,-9.756411438E0,5.577401733E-1,9.774432720E0
1.194165825E1,1.231938171E-1,-9.693093109E0,6.007008362E-1,9.712469935E0
1.195159825E1,-1.122665405E-2,-9.672735443E0,5.956114197E-1,9.691062375E0
1.196153825E1,-1.658551025E-1,-9.720635834E0,5.514532471E-1,9.737677835E0
1.197147925E1,-2.230361938E-1,-9.816885681E0,4.992118835E-1,9.832100596E0
1.198141925E1,-2.483335876E-1,-9.893825684E0,4.445755005E-1,9.906922005E0
1.199135925E1,-2.618055725E-1,-9.884844360E0,3.942800903E-1,9.896168298E0
1.200129925E1,-2.317181396E-1,-9.829309845E0,3.700305176E-1,9.839001367E0
1.201124025E1,-1.514849854E-1,-9.790540466E0,3.393443298E-1,9.797590770E0
1.202118025E1,1.272354126E-2,-9.765991516E0,3.100053406E-1,9.770918866E0
1.203112025E1,1.514849854E-1,-9.744735718E0,2.992277527E-1,9.750505585E0
1.204106025E1,2.176473999E-1,-9.754764862E0,2.968327332E-1,9.761706694E0
1.205100125E1,2.311193848E-1,-9.749825134E0,3.119512939E-1,9.757551943E0
1.206094125E1,2.157014465E-1,-9.750723267E0,3.264710999E-1,9.758571346E0
1.207088125E1,1.510359192E-1,-9.779164124E0,3.806584167E-1,9.787735368E0
1.208082225E1,6.870712280E-2,-9.833800507E0,4.102967834E-1,9.842596026E0
1.209076225E1,-3.367996216E-2,-9.828561401E0,4.213737488E-1,9.837647554E0
1.210070225E1,-9.699829102E-2,-9.849517822E0,4.203259277E-1,9.858959574E0
1.211064225E1,-1.381626892E-1,-9.867330780E0,3.802093506E-1,9.875619717E0
1.212058325E1,-1.556762695E-1,-9.845476227E0,3.384461975E-1,9.852521660E0
1.213052325E1,-1.565744019E-1,-9.820328522E0,2.814147949E-1,9.825607467E0
1.214046325E1,-1.808239746E-1,-9.771529999E0,2.124082947E-1,9.775510887E0
1.215040325E1,-1.962419128E-1,-9.716594238E0,1.342707825E-1,9.719503234E0
1.216034425E1,-1.758842468E-1,-9.735305328E0,7.095245361E-2,9.737152528E0
1.217028425E1,-9.160949707E-2,-9.805958405E0,3.188369751E-2,9.806438146E0
1.218022425E1,2.604583740E-2,-9.866881714E0,3.757186890E-2,9.866987625E0
1.219016525E1,1.233435059E-1,-9.893975372E0,4.879852295E-2,9.894864506E0
1.220010525E1,1.776805115E-1,-9.882000275E0,1.523831177E-1,9.884772147E0
1.221004525E1,1.624122620E-1,-9.844278717E0,2.522254944E-1,9.848848608E0
1.221998525E1,1.407073975E-1,-9.810449066E0,3.713777161E-1,9.818484143E0
1.222992625E1,1.031355286E-1,-9.783804474E0,4.824467468E-1,9.796235082E0
1.223986625E1,6.032455444E-2,-9.767338715E0,5.779481506E-1,9.784608765E0
1.224980625E1,1.242416382E-2,-9.783505096E0,6.551875305E-1,9.805426917E0
1.225974625E1,-4.939727783E-2,-9.794881439E0,6.659651184E-1,9.817619469E0
1.226968725E1,-1.401086426E-1,-9.809850311E0,6.658154297E-1,9.833417704E0
1.227962725E1,-2.442919922E-1,-9.781559143E0,6.243516541E-1,9.804508801E0
1.228956725E1,-3.417393494E-1,-9.753866730E0,5.989045715E-1,9.778209890E0
1.229950837E1,-4.101470947E-1,-9.730066223E0,5.631289673E-1,9.754974299E0
1.230944838E1,-4.224215698E-1,-9.752968597E0,4.794529724E-1,9.773879046E0
1.231938837E1,-4.143383789E-1,-9.765392761E0,4.204756165E-1,9.783218888E0
1.232932837E1,-3.773652649E-1,-9.786648560E0,3.797602844E-1,9.801281163E0
1.233926937E1,-3.658392334E-1,-9.793683929E0,3.600013733E-1,9.807124158E0
1.234920937E1,-3.537144470E-1,-9.764494629E0,3.614982605E-1,9.777584071E0
1.235914937E1,-3.661386108E-1,-9.748477936E0,3.676354980E-1,9.762276139E0
1.236908938E1,-3.499722290E-1,-9.771679688E0,3.617976379E-1,9.784636018E0
1.237903037E1,-3.065625000E-1,-9.761500854E0,3.737727356E-1,9.773463335E0
1.238897038E1,-2.695893860E-1,-9.802665253E0,3.626957703E-1,9.813076618E0
1.239891037E1,-2.540217590E-1,-9.845925293E0,3.811074829E-1,9.856572165E0
1.240885138E1,-2.080673218E-1,-9.895621948E0,3.776646423E-1,9.905011678E0
1.241879137E1,-1.219963074E-1,-9.937684479E0,3.406915283E-1,9.944271045E0
1.242873137E1,-1.347198486E-3,-9.940229187E0,2.883004761E-1,9.944409247E0
1.243867137E1,1.468446350E-1,-9.900112610E0,2.647993469E-1,9.904741881E0
1.244861237E1,3.423381042E-1,-9.856104126E0,2.513273621E-1,9.865249584E0
1.245855237E1,4.900808716E-1,-9.794282684E0,2.707868958E-1,9.810274110E0
1.246849238E1,6.394702148E-1,-9.733958130E0,2.902464294E-1,9.759257452E0
1.247843337E1,7.497908020E-1,-9.733509064E0,3.228785706E-1,9.767683221E0
1.248837338E1,7.923023987E-1,-9.789043579E0,3.478765869E-1,9.827214020E0
1.249831337E1,7.464976501E-1,-9.865684204E0,3.353027344E-1,9.899566227E0
1.250825337E1,6.662644958E-1,-9.991123352E0,3.050656128E-1,1.001795983E1
1.251819437E1,5.409750366E-1,-1.011222153E1,1.957928467E-1,1.012857409E1
1.252813437E1,3.790118408E-1,-1.017838394E1,-1.526824951E-2,1.018544956E1
1.253807437E1,1.993853760E-1,-1.018661682E1,-3.132984924E-1,1.019338377E1
1.254801438E1,3.577560425E-2,-1.013527359E1,-6.807843018E-1,1.015817493E1
1.255795537E1,-4.520599365E-2,-1.003423370E1,-1.138382721E0,1.009870313E1
1.256789538E1,-1.646575928E-3,-9.893077240E0,-1.569935303E0,1.001686961E1
1.257783537E1,1.444496155E-1,-9.692644043E0,-1.872306519E0,9.872879313E0
1.258777638E1,3.252735901E-1,-9.513167267E0,-1.993404694E0,9.725215505E0
1.259771637E1,4.447251892E-1,-9.308243408E0,-1.997446289E0,9.530528187E0
1.260765637E1,5.161267090E-1,-9.048234100E0,-1.917662201E0,9.263603804E0
1.261759637E1,5.291496277E-1,-8.760532379E0,-1.831441498E0,8.965551007E0
1.262753737E1,5.346881104E-1,-8.540040894E0,-1.778152313E0,8.739566093E0
1.263747737E1,5.284011841E-1,-8.386609955E0,-1.758393402E0,8.585242088E0
1.264741738E1,5.460644531E-1,-8.421936493E0,-1.694476318E0,8.608045694E0
1.265735737E1,6.188131714E-1,-8.717122650E0,-1.593735809E0,8.883194857E0
1.266729838E1,8.029302979E-1,-9.328301697E0,-1.264720001E0,9.447826538E0
1.267723837E1,1.077160034E0,-1.031385223E1,-8.430468750E-1,1.040416021E1
1.268717837E1,1.257385254E0,-1.143621826E1,-9.054670715E-1,1.154070953E1
1.269711937E1,1.483265533E0,-1.244556931E1,-1.640289001E0,1.264052293E1
1.270705937E1,1.666185150E0,-1.309402084E1,-2.355950775E0,1.340820864E1
1.271699937E1,1.630409546E0,-1.330328568E1,-2.533331909E0,1.364013987E1
1.272693938E1,1.440304871E0,-1.313698151E1,-2.223326569E0,1.340141568E1
1.273688037E1,1.285377045E0,-1.263747025E1,-1.736538849E0,1.282081961E1
1.274682038E1,9.002279663E-1,-1.195129715E1,-1.325643311E0,1.205824382E1
1.275676037E1,2.938389587E-1,-1.113444580E1,-1.087937622E0,1.119132847E1
1.276670037E1,-2.766247559E-1,-1.034513718E1,-1.022224274E0,1.039919838E1
1.277664137E1,-4.038601685E-1,-9.747430115E0,-1.151106262E0,9.823468965E0
1.278658137E1,-1.730401611E-1,-9.475445709E0,-1.577419739E0,9.607406899E0
1.279652137E1,9.430389404E-2,-9.542506256E0,-1.824106750E0,9.715744146E0
1.280646237E1,3.257226562E-1,-9.680818634E0,-1.719025269E0,9.837651780E0
1.281640237E1,6.589297485E-1,-9.729617157E0,-1.406026154E0,9.852743170E0
1.282634238E1,9.514215088E-1,-9.568851471E0,-1.059945831E0,9.674275504E0
1.283628237E1,1.207538910E0,-9.325906677E0,-7.481442261E-1,9.433472603E0
1.284622338E1,1.351689148E0,-9.079668732E0,-6.023474121E-1,9.199471193E0
1.285616337E1,1.378483429E0,-8.790769501E0,-6.899153137E-1,8.924899334E0
1.286610337E1,1.487606506E0,-8.695717163E0,-8.684939575E-1,8.864691300E0
1.287604337E1,1.565145264E0,-8.607999573E0,-1.003513184E0,8.806496185E0
1.288598437E1,1.545086975E0,-8.465795288E0,-1.046324158E0,8.669012508E0
1.289592437E1,1.577719116E0,-8.334069214E0,-1.040935364E0,8.545727219E0
1.290586438E1,1.496737518E0,-8.217162323E0,-1.074166260E0,8.421152712E0
1.291580537E1,1.348994751E0,-8.142617340E0,-1.222058716E0,8.343586249E0
1.292574538E1,1.258882141E0,-7.949369202E0,-1.486708374E0,8.184592643E0
1.293568537E1,1.028511200E0,-7.814200287E0,-1.872306519E0,8.100931620E0
1.294562537E1,8.884025574E-1,-7.747139740E0,-2.314487000E0,8.134143060E0
1.295556637E1,8.693920898E-1,-7.763605499E0,-2.783611450E0,8.293244580E0
1.296550637E1,7.512876892E-1,-8.030500488E0,-3.167563019E0,8.665265533E0
1.297544637E1,5.307962036E-1,-8.281678162E0,-3.581003265E0,9.038336250E0
1.298538737E1,4.165837097E-1,-8.455915833E0,-3.903881836E0,9.322893754E0
1.299532737E1,3.553610229E-1,-8.604257355E0,-3.956123199E0,9.476836859E0
1.300526738E1,3.137475586E-1,-8.590485992E0,-3.830983429E0,9.411233774E0
1.301520737E1,3.852987671E-1,-8.375083923E0,-3.562741241E0,9.109534072E0
1.302514838E1,5.815406799E-1,-8.307274933E0,-3.196602631E0,8.920049033E0
1.303508837E1,9.045689392E-1,-8.350534973E0,-2.981200562E0,8.912756930E0
1.304502837E1,1.388662262E0,-8.418942719E0,-3.117117920E0,9.084239291E0
1.305496837E1,2.004781036E0,-8.584049377E0,-3.325185242E0,9.421353810E0
1.306490937E1,2.781515808E0,-8.881480865E0,-3.246748352E0,9.856921802E0
1.307484937E1,3.552712097E0,-9.111552429E0,-3.068918152E0,1.024989803E1
1.308478938E1,4.043691101E0,-9.206754456E0,-2.955005035E0,1.048083108E1
1.309473037E1,4.284540253E0,-9.231752472E0,-2.979404297E0,1.060468712E1
1.310467038E1,4.242926788E0,-9.204359436E0,-2.962339783E0,1.055926689E1
1.311461037E1,4.146976318E0,-9.174870758E0,-2.902314606E0,1.047850639E1
1.312455037E1,4.161795502E0,-9.236392822E0,-2.847977600E0,1.052342485E1
1.313449137E1,3.974385223E0,-9.275311890E0,-2.912044373E0,1.050272112E1
1.314443137E1,3.683240662E0,-9.237440643E0,-3.030448151E0,1.039616215E1
1.315437137E1,3.392096100E0,-9.063801727E0,-3.095113678E0,1.016063711E1
1.316431138E1,3.277135162E0,-8.798104248E0,-2.975811768E0,9.848944558E0
1.317425237E1,3.308569794E0,-8.589737549E0,-2.753524017E0,9.607919637E0
1.318419238E1,3.329077148E0,-8.484656067E0,-2.467169495E0,9.442407985E0
1.319413237E1,3.241808624E0,-8.434210968E0,-2.288291473E0,9.321025463E0
1.320407338E1,3.062182159E0,-8.400231628E0,-2.316432953E0,9.236163306E0
1.321401337E1,2.754721527E0,-8.447533264E0,-2.537523193E0,9.240580766E0
1.322395337E1,2.398162994E0,-8.559650116E0,-2.850971375E0,9.335246844E0
1.323389337E1,2.123184814E0,-8.710236969E0,-3.159479828E0,9.505706423E0
1.324383437E1,1.949545898E0,-8.827443237E0,-3.362757111E0,9.645341814E0
1.325377437E1,1.774110718E0,-8.851842499E0,-3.383563843E0,9.641114497E0
1.326371438E1,1.607207794E0,-8.889414368E0,-3.172802124E0,9.574522339E0
1.327365437E1,1.384321289E0,-9.079369354E0,-2.679278412E0,9.567122144E0
1.328359538E1,9.613009644E-1,-9.663155365E0,-2.061213684E0,9.927198648E0
1.329353475E1,3.692820740E-1,-1.089928482E1,-1.651515656E0,1.102988136E1
1.330347475E1,-1.140628052E-1,-1.242072098E1,-1.979333954E0,1.257796020E1
1.331341575E1,-3.158432007E-1,-1.361942825E1,-3.356170807E0,1.403041216E1
1.332335575E1,-5.703140259E-2,-1.465183136E1,-5.857619019E0,1.577945231E1
1.333329575E1,1.340761871E0,-1.561612610E1,-9.187743988E0,1.816798493E1
1.334323575E1,4.135300598E0,-1.566612213E1,-1.020802231E1,1.915024316E1
1.335317675E1,5.796695709E0,-1.424063644E1,-6.302194519E0,1.661671036E1
1.336311675E1,4.930447083E0,-1.202509369E1,-1.838626556E0,1.312603269E1
1.337305675E1,2.363734589E0,-9.655072174E0,6.944059753E-1,9.964429715E0
1.338299775E1,-5.224136353E-2,-7.776478729E0,1.623673553E0,7.944348079E0
1.339293775E1,-1.406026154E0,-6.469396820E0,1.819765778E0,6.865970597E0
1.340287775E1,-2.225721588E0,-5.531746674E0,1.637594604E0,6.183508222E0
1.341281775E1,-2.733615417E0,-5.120252380E0,8.126600647E-1,5.860891918E0
1.342275875E1,-2.983595581E0,-5.710924072E0,-2.155517578E-2,6.443365656E0
1.343269875E1,-2.767445068E0,-7.284302216E0,-3.230282593E-1,7.798984436E0
1.344263875E1,-2.244732056E0,-9.435329132E0,-2.392025757E-1,9.701622323E0
1.345257875E1,-1.879341888E0,-1.113040421E1,7.005432129E-2,1.128816776E1
1.346251975E1,-1.662592621E0,-1.221879089E1,3.632945251E-1,1.233673571E1
1.347245975E1,-1.467099152E0,-1.308548859E1,6.135740662E-1,1.318176258E1
1.348239975E1,-1.156195679E0,-1.316452423E1,7.439529419E-1,1.323612302E1
1.349234075E1,-6.352789307E-1,-1.242805573E1,7.147636414E-1,1.246479183E1
1.350228075E1,-1.115180969E-1,-1.122425903E1,5.640270996E-1,1.123897476E1
1.351222075E1,1.529818726E-1,-9.542955322E0,3.963757324E-1,9.552408778E0
1.352216075E1,2.022294617E-1,-8.270900574E0,2.317181396E-1,8.276616842E0
1.353210175E1,2.715353394E-1,-7.670050049E0,7.514373779E-2,7.675222848E0
1.354204175E1,3.110531616E-1,-7.335495758E0,1.646575928E-2,7.342106183E0
1.355198175E1,2.381547546E-1,-7.339237976E0,6.855743408E-2,7.343420993E0
1.356192175E1,1.871109009E-2,-7.713010712E0,1.053808594E-1,7.713753267E0
1.357186275E1,-2.507286072E-1,-8.375083923E0,7.514373779E-2,8.379173118E0
1.358180275E1,-5.650749207E-1,-9.203012238E0,5.703140259E-2,9.220520402E0
1.359174275E1,-9.235794067E-1,-1.014410522E1,1.419049072E-1,1.018705093E1
1.360168375E1,-1.195863190E0,-1.075124268E1,1.856140137E-1,1.081913862E1
1.361162375E1,-1.413211212E0,-1.095242432E1,1.456471252E-1,1.104418297E1
1.362156375E1,-1.558259583E0,-1.081186661E1,5.957611084E-2,1.092374395E1
1.363150375E1,-1.318308563E0,-1.048045578E1,-1.657054138E-1,1.056434329E1
1.364144475E1,-1.025816803E0,-1.006192612E1,-4.388873291E-1,1.012360012E1
1.365138475E1,-8.993298340E-1,-9.755962372E0,-4.742138672E-1,9.808795785E0
1.366132475E1,-8.518785095E-1,-9.362131348E0,-3.972738647E-1,9.409199057E0
1.367126575E1,-7.553292847E-1,-8.917705536E0,-3.426374817E-1,8.956193097E0
1.368120575E1,-5.016069031E-1,-8.733438721E0,-2.565664673E-1,8.751593439E0
1.369114575E1,-2.121089172E-1,-8.651409302E0,-1.905537415E-1,8.656106736E0
1.370108575E1,-5.269042969E-2,-8.672964478E0,-8.068222046E-2,8.673499797E0
1.371102675E1,7.424560547E-2,-8.972790985E0,7.978408813E-2,8.973452846E0
1.372096675E1,1.685494995E-1,-9.561217346E0,3.412902832E-1,9.568791205E0
1.373090675E1,2.586621094E-1,-1.019724472E1,6.149212646E-1,1.021904272E1
1.374084675E1,4.116439819E-1,-1.050784882E1,9.515711975E-1,1.055887424E1
1.375078775E1,6.059399414E-1,-1.054901321E1,1.202299805E0,1.063458358E1
1.376072775E1,8.891510010E-1,-1.057550812E1,1.263223114E0,1.068773569E1
1.377066775E1,1.118474121E0,-1.054107971E1,1.207089844E0,1.066875868E1
1.378060875E1,1.188378754E0,-1.024828857E1,9.780661011E-1,1.036321746E1
1.379054875E1,1.177451477E0,-9.917027435E0,5.634283447E-1,1.000256350E1
1.380048875E1,1.056652679E0,-9.518256683E0,1.213975525E-1,9.577497718E0
1.381042875E1,8.315208435E-1,-9.170230408E0,-1.863624573E-1,9.209738520E0
1.382036975E1,5.748046875E-1,-9.004824371E0,-3.493734741E-1,9.029912747E0
1.383030975E1,2.930905151E-1,-8.961863708E0,-4.287084961E-1,8.976897802E0
1.384024975E1,5.837860107E-3,-8.995843048E0,-3.818559265E-1,9.003945811E0
1.385018975E1,-1.266366577E-1,-9.024583282E0,-2.463876343E-1,9.028834207E0
1.386013075E1,-1.959425354E-1,-9.008267212E0,-1.540296936E-1,9.011714420E0
1.387007075E1,-1.640588379E-1,-9.076076202E0,-1.420545959E-1,9.078670279E0
1.388001075E1,-1.408570862E-1,-9.123826904E0,-1.661544800E-1,9.126426760E0
1.388995175E1,-1.694476318E-1,-9.147028656E0,-2.186952209E-1,9.151211577E0
1.389989175E1,-2.034269714E-1,-9.233848114E0,-2.380050659E-1,9.239154720E0
1.390983175E1,-1.953437805E-1,-9.205407257E0,-2.155517578E-1,9.210002417E0
1.391977175E1,-1.868115234E-1,-9.216933289E0,-9.864486694E-2,9.219354023E0
1.392971275E1,-2.164498901E-1,-9.223818970E0,3.457809448E-2,9.226423066E0
1.393965275E1,-1.669029236E-1,-9.218130798E0,1.645079041E-1,9.221109199E0
1.394959275E1,-8.083190918E-2,-9.281748505E0,3.101550293E-1,9.287280831E0
1.395953375E1,9.879455566E-3,-9.380992126E0,4.408332825E-1,9.391349470E0
1.396947375E1,9.984237671E-2,-9.498348083E0,5.477110291E-1,9.514650398E0
1.397941375E1,1.462458801E-1,-9.588760071E0,6.179150391E-1,9.609762044E0
1.398935375E1,2.269281006E-1,-9.662855988E0,6.750961304E-1,9.689067911E0
1.399929475E1,3.601510620E-1,-9.729766846E0,6.866221619E-1,9.760610721E0
1.400923475E1,4.989125061E-1,-9.788295135E0,7.038363647E-1,9.826241447E0
1.401917475E1,6.524931335E-1,-9.799072723E0,7.241940308E-1,9.847437764E0
1.402911475E1,7.605683899E-1,-9.766739960E0,7.517367554E-1,9.825109764E0
1.403905575E1,8.592132568E-1,-9.783505096E0,7.300318909E-1,9.848257001E0
1.404899575E1,8.996292114E-1,-9.824669495E0,7.030879211E-1,9.890793498E0
1.405893575E1,9.005273438E-1,-9.943821716E0,7.622149658E-1,1.001356637E1
1.406887675E1,8.755293274E-1,-1.024289978E1,8.141569519E-1,1.031243904E1
1.407881675E1,8.074209595E-1,-1.080513062E1,8.791218567E-1,1.087086158E1
1.408875675E1,7.767347717E-1,-1.153201904E1,9.443861389E-1,1.159666527E1
1.409869675E1,7.810757446E-1,-1.215562225E1,8.300239563E-1,1.220893818E1
1.410863775E1,7.194039917E-1,-1.252550308E1,7.101232910E-1,1.256622635E1
1.411857775E1,7.514373779E-1,-1.263282990E1,5.107379150E-1,1.266546101E1
1.412851775E1,9.282197571E-1,-1.259555740E1,2.839595032E-1,1.263290510E1
1.413845775E1,1.275497589E0,-1.246502884E1,1.348695374E-1,1.253084306E1
1.414839875E1,1.743873596E0,-1.230740662E1,5.508544922E-2,1.243046206E1
1.415833875E1,2.202370148E0,-1.213556396E1,1.053808594E-1,1.233423902E1
1.416827875E1,2.544708252E0,-1.191821594E1,1.935475159E-1,1.218839087E1
1.417821975E1,2.711162109E0,-1.175700119E1,1.766326904E-1,1.206684201E1
1.418815975E1,2.693498840E0,-1.167377426E1,-8.592132568E-2,1.198078979E1
1.419809975E1,2.331102448E0,-1.165536255E1,-6.638694763E-1,1.190471493E1
1.420803975E1,1.554517365E0,-1.144175674E1,-1.482517090E0,1.164165704E1
1.421798075E1,5.731581116E-1,-1.100586319E1,-2.234104156E0,1.124494358E1
1.422792075E1,-3.287164307E-1,-1.059781174E1,-2.937192078E0,1.100221639E1
1.423786075E1,-1.083446960E0,-1.036863831E1,-3.671115875E0,1.105258383E1
1.424780175E1,-1.728006592E0,-1.049093399E1,-4.411925354E0,1.151133303E1
1.425774175E1,-2.346969452E0,-1.088072342E1,-4.468956757E0,1.199458137E1
1.426768175E1,-2.687511292E0,-1.118474121E1,-3.149450684E0,1.192644928E1
1.427762175E1,-2.522554321E0,-1.114058304E1,-1.340612183E0,1.150100482E1
1.428756275E1,-2.017055511E0,-1.112711105E1,1.773811340E-1,1.130984427E1
1.429750337E1,-1.436263275E0,-1.142993134E1,1.213975525E0,1.158360562E1
1.430744338E1,-1.135239258E0,-1.181328415E1,1.731150055E0,1.199330359E1
1.431738338E1,-1.146465912E0,-1.210502747E1,1.917662201E0,1.230948831E1
1.432732438E1,-1.491199036E0,-1.261621445E1,2.052382050E0,1.286875338E1
1.433726438E1,-1.899998932E0,-1.298729279E1,2.176923065E0,1.330483987E1
1.434720437E1,-2.280208282E0,-1.312006668E1,2.179318085E0,1.349388479E1
1.435714538E1,-2.378404083E0,-1.294807434E1,1.973196716E0,1.331175948E1
1.436708537E1,-2.028880920E0,-1.247610580E1,1.477876740E0,1.272610284E1
1.437702537E1,-1.239721985E0,-1.188064407E1,4.567002869E-1,1.195387759E1
1.438696538E1,-3.135978699E-1,-1.107217529E1,-7.674540710E-1,1.110317050E1
1.439690637E1,2.043251038E-1,-1.036280045E1,-1.447938995E0,1.046546268E1
1.440684638E1,3.399430847E-1,-9.689201202E0,-1.075363770E0,9.754618828E0
1.441678638E1,2.424957275E-1,-9.019793243E0,-3.890409851E-1,9.031435502E0
1.442672637E1,-1.032852173E-1,-8.560847626E0,7.589218140E-2,8.561807025E0
1.443666738E1,-3.216810608E-1,-8.158184967E0,2.851570129E-1,8.169502750E0
1.444660737E1,-1.778302002E-1,-7.726782074E0,3.531156921E-1,7.736890557E0
1.445654737E1,2.552192688E-1,-7.464826813E0,3.908372498E-1,7.479407060E0
1.446648837E1,3.724255371E-1,-7.347171478E0,3.366499329E-1,7.364303272E0
1.447642837E1,3.284170532E-1,-7.399712219E0,2.463876343E-1,7.411093412E0
1.448636838E1,4.764591980E-1,-7.708969116E0,9.654922485E-2,7.724282488E0
1.449630838E1,6.385720825E-1,-8.078400879E0,-4.790039063E-2,8.103741698E0
1.450624938E1,7.818241882E-1,-8.332123260E0,6.002517700E-2,8.368938410E0
1.451618938E1,8.262817383E-1,-8.271948395E0,3.360511780E-1,8.319903975E0
1.452612937E1,8.520281982E-1,-7.994425507E0,5.438191223E-1,8.058072379E0
1.453607038E1,8.731343079E-1,-7.587571564E0,4.992118835E-1,7.653941355E0
1.454601037E1,6.186634827E-1,-6.983427887E0,3.112028503E-1,7.017681723E0
1.455595037E1,4.058061218E-1,-6.313271484E0,1.877096558E-1,6.329084480E0
1.456589038E1,3.429368591E-1,-5.767057343E0,1.595681763E-1,5.779447905E0
1.457583137E1,2.207908630E-1,-5.502257996E0,4.318519592E-1,5.523593737E0
1.458577138E1,2.872526550E-1,-5.619015198E0,7.212002563E-1,5.672387124E0
1.459571138E1,3.525169373E-1,-6.363716583E0,3.652404785E-2,6.373577563E0
1.460565238E1,3.141966248E-1,-7.667655029E0,-1.341360626E0,7.790436541E0
1.461559238E1,2.194436646E-1,-8.847950592E0,-2.225871277E0,9.126274604E0
1.462553237E1,4.248165894E-1,-9.464518433E0,-2.627785492E0,9.831725936E0
1.463547237E1,6.933581543E-1,-9.571396179E0,-3.002456360E0,1.005520336E1
1.464541337E1,6.593788147E-1,-9.454938354E0,-3.265010376E0,1.002451657E1
1.465535337E1,6.801855469E-1,-9.418264618E0,-3.828438721E0,1.018937210E1
1.466529338E1,1.055006104E0,-9.262588348E0,-4.837490387E0,1.050285171E1
1.467523338E1,1.811682587E0,-9.047635345E0,-6.512656860E0,1.129409574E1
1.468517438E1,2.015858002E0,-9.085207214E0,-7.588769073E0,1.200808435E1
1.469511438E1,2.265538788E0,-9.122030640E0,-7.841293945E0,1.224050651E1
1.470505437E1,2.604733429E0,-9.140891418E0,-7.619904327E0,1.218209646E1
1.471499538E1,2.849624176E0,-9.326206055E0,-7.029232635E0,1.202117252E1
1.472493537E1,3.096909943E0,-9.596094818E0,-6.253994751E0,1.186542613E1
1.473487537E1,3.468587036E0,-9.805509338E0,-5.415288849E0,1.172622969E1
1.474481538E1,3.725153503E0,-9.963281250E0,-4.612807617E0,1.159403881E1
1.475475637E1,3.764671326E0,-1.003992188E1,-3.820505219E0,1.138283979E1
1.476469638E1,3.585344238E0,-1.009291168E1,-3.279380493E0,1.120160238E1
1.477463638E1,3.417842560E0,-1.008288254E1,-3.315455475E0,1.115071357E1
1.478457637E1,3.096909943E0,-9.865085449E0,-3.529510345E0,1.092557575E1
1.479451738E1,2.504591675E0,-9.127419434E0,-3.324287109E0,1.003163246E1
1.480445737E1,1.976190491E0,-7.859256592E0,-2.926564178E0,8.616148845E0
1.481439737E1,1.889820099E0,-6.686595154E0,-2.689307556E0,7.450795252E0
1.482433837E1,2.050735474E0,-5.905669098E0,-2.501897278E0,6.733641917E0
1.483427837E1,2.157912598E0,-5.548960876E0,-2.260299683E0,6.368399190E0
1.484421838E1,2.153421936E0,-5.560486908E0,-2.041754150E0,6.302777221E0
1.485415838E1,2.048041077E0,-5.989494781E0,-1.832189941E0,6.589798174E0
1.486409938E1,1.875300293E0,-6.987319794E0,-1.602567444E0,7.409967038E0
1.487403938E1,1.632954254E0,-8.911268921E0,-1.512155457E0,9.184980539E0
1.488397937E1,1.202748871E0,-1.190983337E1,-1.587748260E0,1.207525074E1
1.489392038E1,4.947212219E-1,-1.555475372E1,-2.284100189E0,1.572934284E1
1.490386037E1,2.779719543E-1,-1.986983047E1,-5.142556000E0,2.052640528E1
1.491380037E1,1.388961639E0,-2.418281158E1,-1.258193573E1,2.729547027E1
1.492374038E1,4.932393036E0,-2.462663864E1,-1.559681625E1,2.956451436E1
1.493368137E1,7.153025208E0,-1.986219635E1,-7.916138306E0,2.254634913E1
1.494362138E1,5.652695160E0,-1.465018478E1,-5.779481506E-1,1.571352605E1
1.495356138E1,1.966011658E0,-1.047671356E1,3.303779755E0,1.115982480E1
1.496350137E1,-9.243278503E-1,-7.144193573E0,4.481530609E0,8.483984935E0
1.497344238E1,-2.739453278E0,-4.366419983E0,4.557871857E0,6.880728420E0
1.498338237E1,-3.793112183E0,-2.145638123E0,4.002826080E0,5.917269608E0
1.499332237E1,-4.592150574E0,-8.418493652E-1,1.185085602E0,4.816740094E0
1.500326337E1,-5.805826721E0,4.191284180E-3,-3.005899200E0,6.537818557E0
1.501320337E1,-6.246210938E0,-1.772314453E0,-3.218906250E0,7.246903273E0
1.502314338E1,-6.036197662E0,-5.324128418E0,-1.123264160E0,8.126730462E0
1.503308338E1,-6.111341400E0,-8.173153839E0,4.299060059E-1,1.021438968E1
1.504302438E1,-5.929319916E0,-1.042761566E1,1.350940704E0,1.207133149E1
1.505296438E1,-5.140759735E0,-1.266186951E1,1.994901581E0,1.381050261E1
1.506290437E1,-4.279600525E0,-1.441502380E1,2.294578400E0,1.521094941E1
1.507284437E1,-3.103047180E0,-1.516810776E1,2.319726105E0,1.565507981E1
1.508278537E1,-1.760638733E0,-1.502695129E1,2.242636414E0,1.529504927E1
1.509272537E1,-3.320095825E-1,-1.394021118E1,1.600920868E0,1.403576381E1
1.510266538E1,1.409918060E0,-1.211505661E1,1.182540894E-1,1.219739520E1
1.511260637E1,2.364333344E0,-1.028047165E1,-1.246457977E0,1.062223267E1
1.512254638E1,2.320324860E0,-9.098978577E0,-1.548230438E0,9.516949936E0
1.513248638E1,2.120041351E0,-8.251890106E0,-1.241218872E0,8.609813584E0
1.514242637E1,1.841770020E0,-7.653883667E0,-1.011746063E0,7.937107917E0
1.515236738E1,1.678908691E0,-7.558981018E0,-9.743238831E-1,7.804244708E0
1.516230737E1,1.906435547E0,-8.044720917E0,-1.013841705E0,8.329460134E0
1.517224737E1,2.134710846E0,-9.212742004E0,-8.976832581E-1,9.499338970E0
1.518218837E1,2.307002563E0,-1.059601547E1,-3.957769775E-1,1.085147198E1
1.519212837E1,2.472408600E0,-1.143367355E1,2.356100464E-1,1.170030800E1
1.520206838E1,2.415077820E0,-1.165476379E1,7.107220459E-1,1.192355844E1
1.521200838E1,2.285746765E0,-1.140373581E1,9.954299927E-1,1.167307627E1
1.522194938E1,2.292183380E0,-1.101634140E1,8.050259399E-1,1.128104380E1
1.523188938E1,2.237996063E0,-1.055095917E1,4.064048767E-1,1.079335586E1
1.524182937E1,1.974543915E0,-9.963580627E0,1.555265808E-1,1.015854080E1
1.525176937E1,1.542392578E0,-9.130712585E0,-2.724334717E-2,9.260109577E0
1.526171037E1,1.147813110E0,-8.302185516E0,-2.308200073E-1,8.384332839E0
1.527165037E1,7.899073792E-1,-7.832911377E0,-5.215155029E-1,7.889894342E0
1.528159038E1,2.830613708E-1,-7.741900635E0,-6.050418091E-1,7.770664371E0
1.529153137E1,-1.444496155E-1,-8.017028503E0,-4.601431274E-1,8.031521862E0
1.530147087E1,-3.558100891E-1,-8.413254547E0,-1.851649475E-1,8.422810633E0
1.531141088E1,-2.984793091E-1,-8.926986237E0,5.044509888E-2,8.932117211E0
1.532135088E1,5.089416504E-3,-9.308243408E0,2.601589966E-1,9.311879722E0
1.533129188E1,1.381626892E-1,-9.427695007E0,4.481680298E-1,9.439352555E0
1.534123188E1,2.049238586E-1,-9.503437500E0,6.227050781E-1,9.526021190E0
1.535117187E1,9.819580078E-2,-9.258247375E0,7.140151978E-1,9.286258912E0
1.536111288E1,-3.847000122E-2,-9.059760132E0,7.101232910E-1,9.087629431E0
1.537105287E1,-1.480421448E-1,-8.899443512E0,6.786886597E-1,8.926512734E0
1.538099287E1,-2.189945984E-1,-8.857680359E0,6.753955078E-1,8.886091327E0
1.539093288E1,-2.540217590E-1,-8.921298065E0,6.888674927E-1,8.951459358E0
1.540087387E1,-2.650987244E-1,-9.020242310E0,6.997947693E-1,9.051229827E0
1.541081388E1,-3.085084534E-1,-9.044791260E0,6.882687378E-1,9.076185336E0
1.542075388E1,-5.016069031E-1,-9.085356903E0,7.503895569E-1,9.130082367E0
1.543069387E1,-5.893244934E-1,-9.169481964E0,8.378077698E-1,9.226517475E0
1.544063488E1,-6.502478027E-1,-9.084608459E0,8.744815063E-1,9.149735022E0
1.545057487E1,-6.004014587E-1,-8.995543671E0,8.074209595E-1,9.051641644E0
1.546051487E1,-4.230203247E-1,-8.870254211E0,7.740403748E-1,8.914005523E0
1.547045587E1,-3.465293884E-1,-8.928632812E0,7.702981567E-1,8.968496294E0
1.548039587E1,-3.637435913E-1,-9.251511383E0,7.330256653E-1,9.287631501E0
1.549033588E1,-4.272116089E-1,-9.607471161E0,5.652246094E-1,9.633560646E0
1.550027588E1,-3.888912964E-1,-9.962383118E0,1.691482544E-1,9.971405365E0
1.551021688E1,-5.643264771E-2,-1.022508682E1,-3.147953796E-1,1.023008706E1
1.552015688E1,4.900808716E-1,-1.026101212E1,-7.472460938E-1,1.029985076E1
1.553009687E1,1.169967041E0,-1.014290771E1,-9.910890198E-1,1.025815077E1
1.554003787E1,1.674867096E0,-9.968670044E0,-9.319619751E-1,1.015126176E1
1.554997787E1,1.868564301E0,-9.804760895E0,-5.348377991E-1,9.995545019E0
1.555991787E1,1.853445740E0,-9.643845520E0,1.781295776E-2,9.820353091E0
1.556985788E1,1.810485077E0,-9.598639526E0,5.938151550E-1,9.785926293E0
1.557979887E1,1.826052704E0,-9.870474243E0,1.057850189E0,1.009355127E1
1.558973888E1,1.817221069E0,-1.075992462E1,1.437909851E0,1.100662778E1
1.559967888E1,1.691482544E0,-1.215696945E1,1.696272583E0,1.239073687E1
1.560961887E1,1.468745728E0,-1.313338898E1,1.831441498E0,1.334156280E1
1.561955987E1,1.362017670E0,-1.356164841E1,1.686842194E0,1.373385730E1
1.562949987E1,1.334025879E0,-1.365625168E1,1.444645844E0,1.379709522E1
1.563943987E1,1.297052765E0,-1.369576950E1,1.358574829E0,1.382397098E1
1.564938087E1,1.260379028E0,-1.358020981E1,1.148112488E0,1.368681176E1
1.565932087E1,1.122815094E0,-1.331660797E1,5.727090454E-1,1.337612639E1
1.566926088E1,9.416917419E-1,-1.310285248E1,-2.838098145E-1,1.313971363E1
1.567920088E1,9.599537659E-1,-1.308713516E1,-1.415007477E0,1.319836597E1
1.568914188E1,1.195414124E0,-1.327933548E1,-2.321821747E0,1.353368471E1
1.569908187E1,1.431772614E0,-1.327813797E1,-2.674039307E0,1.362018381E1
1.570902187E1,1.357826385E0,-1.276590317E1,-2.450703735E0,1.306973316E1
1.571896287E1,1.031954041E0,-1.193138855E1,-1.969454498E0,1.213679170E1
1.572890287E1,5.406756592E-1,-1.121647522E1,-1.615590363E0,1.134512136E1
1.573884287E1,-2.279759216E-1,-1.082848206E1,-1.780247955E0,1.097621426E1
1.574878288E1,-1.042731628E0,-1.064900528E1,-2.720742188E0,1.104042756E1
1.575872387E1,-1.741927643E0,-1.055440201E1,-3.532204742E0,1.126526449E1
1.576866388E1,-2.033521271E0,-1.062640228E1,-2.904559937E0,1.120232577E1
1.577860387E1,-1.925595703E0,-1.090332642E1,-1.212927704E0,1.113829607E1
1.578854387E1,-1.542691956E0,-1.101753891E1,4.334985352E-1,1.113346231E1
1.579848487E1,-1.222358093E0,-1.105481140E1,1.467997284E0,1.121864655E1
1.580842487E1,-1.317709808E0,-1.130419281E1,2.037113800E0,1.156161610E1
1.581836487E1,-1.652264099E0,-1.157962006E1,2.402953033E0,1.194117920E1
1.582830587E1,-1.961820374E0,-1.182346298E1,2.538421326E0,1.225098359E1
1.583824587E1,-2.295476532E0,-1.208931015E1,2.395318909E0,1.253627477E1
1.584818588E1,-2.694247284E0,-1.225995529E1,2.050436096E0,1.271887418E1
1.585812587E1,-3.155887299E0,-1.221205490E1,1.301393738E0,1.268020249E1
1.586806688E1,-3.444636841E0,-1.192884384E1,-8.771759033E-2,1.241654270E1
1.587800687E1,-2.982098694E0,-1.137559433E1,-1.481319580E0,1.185290541E1
1.588794687E1,-1.899400177E0,-1.055350388E1,-2.158661041E0,1.093818918E1
1.589788787E1,-1.047821045E0,-9.592502289E0,-1.897154846E0,9.834288262E0
1.590782787E1,-9.572593689E-1,-8.863817596E0,-8.797206116E-1,8.958655939E0
1.591776787E1,-1.092278595E0,-8.393645325E0,2.698887634E-1,8.468718575E0
1.592770788E1,-1.030756531E0,-8.034691772E0,1.221010895E0,8.192044831E0
1.593764887E1,-7.414082336E-1,-7.845934296E0,1.733994141E0,8.069393213E0
1.594758888E1,-7.412585449E-1,-7.784861298E0,1.320104828E0,7.930712856E0
1.595752887E1,-5.966592407E-1,-7.718549194E0,3.876937866E-1,7.751277984E0
1.596746887E1,-2.656974792E-1,-7.762857056E0,-5.013075256E-1,7.783563069E0
1.597740987E1,-2.133064270E-1,-7.894583130E0,-7.418572998E-1,7.932231381E0
1.598734987E1,9.086105347E-2,-7.852819977E0,-2.863545227E-1,7.858564515E0
1.599728987E1,5.303471375E-1,-7.876919861E0,1.523831177E-1,7.896224110E0
1.600723087E1,8.138575745E-1,-7.872578888E0,3.903881836E-1,7.924157080E0
1.601717087E1,9.035211182E-1,-7.673492889E0,4.547543335E-1,7.739873709E0
1.602711088E1,8.713380432E-1,-7.350464630E0,3.201841736E-1,7.408851339E0
1.603705087E1,4.203259277E-1,-6.706054688E0,-1.092727661E-2,6.719223375E0
1.604699188E1,-4.038601685E-1,-5.686674500E0,-1.414558411E-1,5.702751937E0
1.605693187E1,-7.494914246E-1,-4.759951630E0,-8.352630615E-2,4.819320860E0
1.606687187E1,-6.670129395E-1,-4.306394806E0,-1.619631958E-1,4.360753898E0
1.607681287E1,-6.472540283E-1,-4.483177185E0,-5.322930908E-1,4.560827928E0
1.608675287E1,-4.403842163E-1,-5.061275024E0,-9.327104187E-1,5.165306560E0
1.609669287E1,-3.986210632E-1,-5.912854156E0,-1.273851013E0,6.061636696E0
1.610663288E1,-5.066963196E-1,-7.012317810E0,-1.813029785E0,7.260607360E0
1.611657387E1,4.355941772E-2,-7.815248108E0,-2.661016388E0,8.255968061E0
1.612651388E1,8.110134888E-1,-8.455766144E0,-3.434158630E0,9.162487078E0
1.613645387E1,1.426383820E0,-9.053173828E0,-3.787573700E0,9.916664847E0
1.614639488E1,1.854343872E0,-9.659263458E0,-4.537364502E0,1.083178833E1
1.615633487E1,2.664758606E0,-1.009620483E1,-5.556145935E0,1.182814644E1
1.616627487E1,3.623514862E0,-1.067894302E1,-6.223607941E0,1.288033306E1
1.617621487E1,4.369713135E0,-1.135523666E1,-6.992558899E0,1.403323457E1
1.618615587E1,5.080584869E0,-1.161524597E1,-7.698790283E0,1.483231787E1
1.619609587E1,5.696703644E0,-1.129730713E1,-7.895181885E0,1.491360043E1
1.620603588E1,5.910908203E0,-1.087278992E1,-8.181237030E0,1.483539806E1
1.621597587E1,5.984255676E0,-1.054018158E1,-8.867410126E0,1.501791284E1
1.622591688E1,5.813311157E0,-1.040860519E1,-9.514963531E0,1.525346451E1
1.623585687E1,5.269042969E0,-1.036429733E1,-9.318571930E0,1.490024348E1
