"Time (s)","Gyroscope x (rad/s)","Gyroscope y (rad/s)","Gyroscope z (rad/s)","Absolute (rad/s)"
9.136749999E-3,-5.657596588E-1,-3.712423742E-1,-1.252462715E-1,6.881798605E-1
1.907775000E-2,-6.430675387E-1,-5.942696333E-1,-1.374611259E-1,8.863339199E-1
2.901775000E-2,-7.109541297E-1,-8.078069091E-1,-1.283655316E-1,1.083736816E0
3.895775000E-2,-8.060351014E-1,-1.034267664E0,-9.028711915E-2,1.314364466E0
4.889875000E-2,-8.570519686E-1,-1.296616793E0,-3.412512690E-2,1.554643917E0
5.883875000E-2,-8.007737994E-1,-1.583193421E0,-9.842207655E-4,1.774187435E0
6.877875001E-2,-6.357696056E-1,-1.838104248E0,-8.591692895E-3,1.944968903E0
7.871975000E-2,-3.650374115E-1,-2.051043987E0,-9.490767866E-2,2.085435498E0
8.865975001E-2,-4.903464019E-2,-2.177714348E0,-2.528787851E-1,2.192895770E0
9.859975000E-2,1.930980980E-1,-2.210265636E0,-4.329819679E-1,2.260538530E0
1.085407500E-1,2.690953314E-1,-2.154036283E0,-4.938099384E-1,2.226237378E0
1.184807500E-1,1.959926188E-1,-2.137209892E0,-4.575198293E-1,2.194402794E0
1.284207500E-1,4.742745310E-2,-2.014238596E0,-3.982610106E-1,2.053781468E0
1.383617500E-1,-1.737771034E-1,-1.819697261E0,-3.869540095E-1,1.868483344E0
1.483017500E-1,-4.109444022E-1,-1.608969331E0,-3.797999620E-1,1.703498054E0
1.582417500E-1,-5.910528898E-1,-1.401522040E0,-3.489863873E-1,1.560576511E0
1.681820833E-1,-7.964769006E-1,-1.042618513E0,-3.346551061E-1,1.354039459E0
1.781220833E-1,-8.112108111E-1,-9.290352464E-1,-3.032966554E-1,1.270101701E0
1.880620833E-1,-7.443556786E-1,-1.113610983E0,-2.440234125E-1,1.361522025E0
1.980030833E-1,-6.709895730E-1,-1.342142701E0,-2.048989087E-1,1.514449603E0
2.079430833E-1,-6.058945656E-1,-1.504436016E0,-2.528564036E-1,1.641454328E0
2.178830833E-1,-5.551717281E-1,-1.620981455E0,-2.938546836E-1,1.738432368E0
2.278240833E-1,-4.283196032E-1,-1.806841254E0,-3.800786138E-1,1.895413610E0
2.377640833E-1,-2.418522686E-1,-1.968737483E0,-5.099049807E-1,2.048029025E0
2.477040833E-1,-3.968690708E-2,-2.105723858E0,-6.038466692E-1,2.190953860E0
2.576450833E-1,9.060851485E-2,-2.287182570E0,-5.747383237E-1,2.360029269E0
2.675850833E-1,1.349912286E-1,-2.475191116E0,-4.386712909E-1,2.517384793E0
2.775250833E-1,1.203081533E-1,-2.612058401E0,-2.448624223E-1,2.626267456E0
2.874660833E-1,2.269914150E-1,-2.553115606E0,-8.933739737E-4,2.563186532E0
2.974060833E-1,2.804373205E-1,-2.570728302E0,1.917061657E-1,2.593075461E0
3.073460833E-1,3.321524262E-1,-2.756464720E0,3.281113207E-1,2.795725313E0
3.172870833E-1,3.610618412E-1,-3.138845205E0,2.902313173E-1,3.172845583E0
3.272270833E-1,3.083850741E-1,-3.646537066E0,1.396830827E-1,3.662218629E0
3.371670833E-1,-9.796218574E-2,-3.412312508E0,6.600535512E-1,3.476944626E0
3.471080833E-1,-3.394739926E-1,-3.291630507E0,9.277064800E-1,3.436671834E0
3.570480833E-1,-5.085461140E-1,-3.414685965E0,7.066993117E-1,3.523935769E0
3.669880833E-1,-5.036715269E-1,-3.561184406E0,6.933772564E-1,3.662852905E0
3.769290833E-1,-3.435010016E-1,-3.779294968E0,8.994249701E-1,3.900003675E0
3.868690833E-1,-1.995818764E-1,-4.142481327E0,1.170169830E0,4.309208965E0
3.968090833E-1,-8.916428685E-2,-4.489045620E0,1.379212022E0,4.696989105E0
4.067500833E-1,-2.004900575E-2,-4.710321903E0,1.580426931E0,4.968428693E0
4.166900833E-1,2.523911372E-2,-4.911488533E0,1.818892002E0,5.237530405E0
4.266300833E-1,6.213422492E-2,-5.084689617E0,1.978988171E0,5.456585319E0
4.365710833E-1,5.357216299E-2,-5.163604259E0,2.055359840E0,5.557893756E0
4.465110833E-1,1.316210534E-2,-5.243628979E0,2.100146055E0,5.648577835E0
4.564510833E-1,-3.293215483E-2,-5.339271545E0,2.179554224E0,5.767093009E0
4.663920833E-1,-9.344561398E-2,-5.493126392E0,2.292176485E0,5.952918837E0
4.763320833E-1,-7.872312516E-2,-5.654004097E0,2.393924475E0,6.140426211E0
4.862720833E-1,6.857968122E-2,-5.854715824E0,2.586988926E0,6.401164914E0
4.962130833E-1,3.566212952E-1,-6.070893288E0,2.819009066E0,6.702964730E0
5.061530833E-1,7.669777870E-1,-6.376218319E0,3.127267599E0,7.143123799E0
5.160930833E-1,1.172036886E0,-6.727628231E0,3.564370394E0,7.703206370E0
5.260340833E-1,1.322363257E0,-6.978011608E0,4.148615360E0,8.225101823E0
5.359740833E-1,1.143326998E0,-6.936483860E0,4.869694233E0,8.551954565E0
5.459140833E-1,7.755835652E-1,-6.417466640E0,5.677946568E0,8.603748321E0
5.558550833E-1,4.264841974E-1,-5.827302933E0,6.567504883E0,8.790419138E0
5.657950833E-1,4.402006567E-1,-5.028495312E0,6.869944096E0,8.525002850E0
5.757350833E-1,8.786488175E-1,-4.105721951E0,6.503412247E0,7.741017203E0
5.856760833E-1,1.410618424E0,-3.062096119E0,5.661317348E0,6.589141909E0
5.956160833E-1,1.811371684E0,-2.057412148E0,4.390713215E0,5.176135108E0
6.055560833E-1,2.027310848E0,-1.302661777E0,3.131894588E0,3.951668090E0
6.154960833E-1,1.918919206E0,-8.879393935E-1,2.787184000E0,3.498439929E0
6.254370833E-1,1.545345306E0,-4.343335629E-1,2.866273403E0,3.285157680E0
6.353770833E-1,1.099496722E0,-1.600585878E-1,3.061749935E0,3.257119043E0
6.453170833E-1,6.979744434E-1,-8.270907402E-2,3.366208076E0,3.438802979E0
6.552580833E-1,4.980991781E-1,-4.201011732E-2,3.591127396E0,3.625750076E0
6.651980833E-1,6.371006370E-1,-9.501299262E-2,3.634439945E0,3.691080926E0
6.751380833E-1,1.079690695E0,-2.847608328E-1,3.528790712E0,3.701240957E0
6.850790833E-1,1.720592499E0,-5.712085962E-1,3.281465292E0,3.748964160E0
6.950190833E-1,2.454596758E0,-1.067449570E0,2.868752241E0,3.923548553E0
7.049590833E-1,3.161212921E0,-1.552750707E0,2.485982180E0,4.310963847E0
7.149000833E-1,3.725217819E0,-1.834213257E0,2.117237568E0,4.660931344E0
7.248400833E-1,4.005580425E0,-1.986470938E0,1.826331377E0,4.829723349E0
7.347800833E-1,3.848933697E0,-1.569840670E0,1.624815106E0,4.463038702E0
7.447210833E-1,3.090887070E0,-3.065592349E-1,1.422910571E0,3.416465416E0
7.546610833E-1,2.048295021E0,7.301251888E-1,1.015000820E0,2.399754560E0
7.646010833E-1,1.298137426E0,1.283510685E0,5.287296772E-1,1.900556636E0
7.745420833E-1,8.362395167E-1,1.246436834E0,2.157824486E-1,1.516398159E0
7.844820833E-1,5.854119062E-1,1.206409454E0,-9.395067394E-2,1.344231230E0
7.944220833E-1,4.477824271E-1,9.128609300E-1,-3.610579967E-1,1.078975003E0
8.043630833E-1,4.311608672E-1,6.885444522E-1,-4.849651754E-1,9.461418379E-1
8.143030833E-1,4.477030933E-1,5.469218493E-1,-5.205618143E-1,8.778075936E-1
8.242430833E-1,5.439489484E-1,3.355321288E-1,-5.307163000E-1,8.307358539E-1
8.341840833E-1,7.828334570E-1,9.125898033E-2,-4.608142078E-1,9.129655837E-1
8.441240833E-1,1.066326141E0,-1.546122730E-1,-3.525914252E-1,1.133700625E0
8.540640833E-1,1.300548434E0,-3.429475725E-1,-2.772521973E-1,1.373283674E0
8.640050833E-1,1.391964436E0,-4.086469114E-1,-1.963461488E-1,1.463936166E0
8.739450833E-1,1.354386210E0,-4.002637863E-1,-1.130624413E-1,1.416811992E0
8.838850833E-1,1.256361723E0,-2.690645456E-1,-1.168482602E-1,1.290152714E0
8.938260833E-1,1.089050412E0,-1.170489192E-1,-2.396894991E-1,1.121241413E0
9.037660833E-1,9.322371483E-1,-3.397895396E-2,-4.178813696E-1,1.022176848E0
9.137060833E-1,8.936011195E-1,1.274136603E-1,-6.437352300E-1,1.108671389E0
9.236470833E-1,8.715621829E-1,1.149663553E-1,-9.131581187E-1,1.267554989E0
9.335870833E-1,8.796302080E-1,4.282981623E-3,-1.106846690E0,1.413816552E0
9.435270833E-1,9.264620543E-1,1.211253647E-2,-1.318707824E0,1.611666521E0
9.534680833E-1,9.936472178E-1,-4.045986012E-2,-1.533467770E0,1.827702162E0
9.634080833E-1,1.032582521E0,-1.440254599E-1,-1.661627054E0,1.961625465E0
9.733480833E-1,9.465717673E-1,-2.342070192E-1,-1.721968651E0,1.978895417E0
9.832890833E-1,7.370488644E-1,-3.181113005E-1,-1.751924157E0,1.927089536E0
9.932290833E-1,2.899445891E-1,-3.032186329E-1,-1.677770019E0,1.729428125E0
1.003169083E0,-2.703974247E-1,-3.040600717E-1,-1.559411168E0,1.611623556E0
1.013110083E0,-4.527230263E-1,-6.376026273E-1,-1.440685868E0,1.639228788E0
1.023050083E0,-2.213445455E-1,-1.087467432E0,-1.474917769E0,1.845795560E0
1.032990083E0,2.172304094E-1,-1.584528327E0,-1.510668874E0,2.200008981E0
1.042931083E0,5.133140087E-1,-1.936395168E0,-1.446444154E0,2.470894213E0
1.052871083E0,6.113039255E-1,-2.247925758E0,-1.262648225E0,2.649743996E0
1.062811083E0,7.385240793E-1,-2.410862923E0,-9.913080931E-1,2.709311644E0
1.072752083E0,9.603488445E-1,-2.178591490E0,-8.308148384E-1,2.521662959E0
1.082692083E0,1.070582271E0,-2.069193125E0,-6.973420978E-1,2.431870183E0
1.092632083E0,1.086173058E0,-1.964276075E0,-5.854206085E-1,2.319670171E0
1.102573083E0,1.018703341E0,-1.679187059E0,-5.464086533E-1,2.038624069E0
1.112513083E0,9.522573948E-1,-1.271262407E0,-5.861627460E-1,1.693070884E0
1.122453083E0,9.335063100E-1,-8.477159142E-1,-6.196256280E-1,1.404988335E0
1.132394083E0,8.955128789E-1,-5.807553530E-1,-6.555551291E-1,1.252586374E0
1.142334083E0,8.276559114E-1,-4.211674333E-1,-7.505847216E-1,1.194057678E0
1.152274083E0,7.528468966E-1,-3.340194821E-1,-8.326340318E-1,1.171164760E0
1.162215083E0,7.285959125E-1,-2.938190699E-1,-8.724511266E-1,1.174032631E0
1.172155833E0,7.459184527E-1,-3.435344398E-1,-9.405465722E-1,1.248614474E0
1.182095833E0,7.983230352E-1,-4.241568446E-1,-1.062006116E0,1.394663288E0
1.192036833E0,8.577887416E-1,-3.996373713E-1,-1.129935980E0,1.473861212E0
1.201976833E0,7.987583280E-1,-1.685712487E-1,-9.681755900E-1,1.266410323E0
1.211916833E0,6.078882217E-1,-2.683196217E-2,-6.859191060E-1,9.169149711E-1
1.221857833E0,6.692451835E-1,-7.387470687E-4,-4.659845829E-1,8.154945082E-1
1.231797833E0,8.497630358E-1,-9.361675382E-2,-2.767204046E-1,8.985741460E-1
1.241737833E0,8.474521041E-1,-2.344719768E-1,-7.208739221E-2,8.822407657E-1
1.251678833E0,7.777901888E-1,-3.409938812E-1,4.243085086E-1,9.493535249E-1
1.261618833E0,5.886628628E-1,-4.080300033E-1,1.032656312E0,1.256738441E0
1.271558833E0,5.168616176E-1,-5.877244473E-1,1.443677902E0,1.642185082E0
1.281499833E0,8.171073794E-1,-7.280997038E-1,1.624231339E0,1.958550762E0
1.291439833E0,1.101749063E0,-5.181546807E-1,1.743200064E0,2.126283549E0
1.301379833E0,1.016257882E0,-1.271455288E-1,1.877864122E0,2.138999703E0
1.311320833E0,8.597173095E-1,4.141702056E-1,1.884162545E0,2.112041502E0
1.321260833E0,7.150743008E-1,8.802374005E-1,1.756306648E0,2.090636788E0
1.331200833E0,6.015008688E-1,1.234368563E0,1.539689660E0,2.063034971E0
1.341140833E0,5.322424173E-1,1.534229636E0,1.322691917E0,2.094434643E0
1.351081833E0,5.078185797E-1,1.788108945E0,1.147908330E0,2.184698341E0
1.361021833E0,4.608066976E-1,1.961002469E0,1.006478667E0,2.251859854E0
1.370962833E0,3.788268864E-1,2.121779203E0,1.043159008E0,2.394501517E0
1.380902833E0,3.798066974E-1,2.233457088E0,1.229246736E0,2.577524244E0
1.390842833E0,5.228810310E-1,2.154952765E0,1.376865506E0,2.610169460E0
1.400782833E0,7.278499603E-1,1.948832870E0,1.502188563E0,2.565986282E0
1.410723833E0,8.644033074E-1,1.765983462E0,1.497243404E0,2.471361665E0
1.420663833E0,7.974436283E-1,1.626840949E0,1.375455737E0,2.274732138E0
1.430603833E0,8.424233198E-1,1.487577319E0,1.164978862E0,2.068753025E0
1.440544833E0,7.892798781E-1,1.310399175E0,8.826412559E-1,1.766115599E0
1.450484833E0,8.420512080E-1,1.386053562E0,5.819852948E-1,1.723050086E0
1.460424833E0,1.261069417E0,1.344524622E0,1.211898923E-1,1.847357443E0
1.470365833E0,1.517360568E0,1.240392208E0,-2.949820161E-1,1.981910773E0
1.480305833E0,1.698358536E0,8.904283047E-1,-7.179905176E-1,2.047631477E0
1.490245833E0,1.873115063E0,1.806064397E-1,-1.066555738E0,2.163034874E0
1.500186833E0,1.470788360E0,3.500896692E-1,-1.366012812E0,2.037589796E0
1.510126833E0,6.726632714E-1,6.116949320E-1,-1.615531325E0,1.853803665E0
1.520066833E0,-1.374731511E-1,9.111319184E-1,-1.706883907E0,1.939719803E0
1.530007833E0,-6.111501455E-1,7.940020561E-1,-1.802639008E0,2.062389672E0
1.539947833E0,-5.424834490E-1,2.150836289E-1,-1.763141513E0,1.857206842E0
1.549887833E0,-4.672472775E-1,-3.995074034E-1,-1.614034653E0,1.727146214E0
1.559828833E0,-6.503701210E-1,-9.889025688E-1,-1.402404070E0,1.835114917E0
1.569768833E0,-8.054638505E-1,-1.456792831E0,-1.104912400E0,1.997961156E0
1.579708833E0,-8.231466413E-1,-2.017468452E0,-8.922342062E-1,2.354534185E0
1.589649833E0,-6.927960515E-1,-2.427385330E0,-7.752740383E-1,2.640684711E0
1.599589833E0,-5.089140534E-1,-2.632708073E0,-8.133206964E-1,2.802077063E0
1.609529833E0,-4.638302028E-1,-2.630111456E0,-9.076253772E-1,2.820710647E0
1.619470833E0,-6.024169922E-1,-2.384604454E0,-1.010928035E0,2.659176588E0
1.629410833E0,-8.655951023E-1,-1.924442768E0,-1.117341876E0,2.387716004E0
1.639350833E0,-1.094493866E0,-1.327554822E0,-1.168679953E0,2.079935446E0
1.649291833E0,-1.282414794E0,-8.551846147E-1,-1.172675014E0,1.936774410E0
1.659231833E0,-1.357278705E0,-6.340202689E-1,-1.060792327E0,1.835610946E0
1.669171833E0,-1.235379696E0,-6.328735352E-1,-9.124113917E-1,1.661079905E0
1.679112833E0,-1.108243465E0,-8.938941360E-1,-6.873704195E-1,1.581052940E0
1.689052833E0,-1.023836732E0,-1.162600160E0,-3.524766266E-1,1.588748110E0
1.698992833E0,-8.821758032E-1,-1.044250965E0,1.528080702E-1,1.375516097E0
1.708933833E0,-8.948665261E-1,-7.627764344E-1,1.307219416E-1,1.183090113E0
1.718873833E0,-6.176716089E-1,-1.255164742E0,-2.597917020E-1,1.422831148E0
1.728813833E0,-3.969885111E-1,-1.353891015E0,-1.613271832E-1,1.420087046E0
1.738754833E0,-5.752916336E-1,-1.444949865E0,-1.225466747E-2,1.555310501E0
1.748694833E0,-1.084740043E0,-1.454863787E0,1.507054865E-1,1.820989221E0
1.758634833E0,-1.679546952E0,-1.469831228E0,2.593614459E-1,2.246897898E0
1.768575833E0,-1.763245344E0,-1.540345073E0,2.717781961E-1,2.357023647E0
1.778515833E0,-3.373073936E-1,5.024453625E-2,-2.414693534E-1,4.178615079E-1
1.788455833E0,1.099287048E-1,4.973482788E-1,-6.246052384E-1,8.059598839E-1
1.798396833E0,-3.467190862E-1,6.174693108E-1,-6.355211735E-1,9.515091363E-1
1.808336833E0,-7.231938839E-1,7.509778142E-1,-5.198299885E-1,1.164989394E0
1.818276833E0,-7.730302215E-1,7.517413497E-1,-4.373924732E-1,1.163616327E0
1.828217833E0,-6.239725947E-1,6.210861206E-1,-5.638100505E-1,1.045452792E0
1.838157833E0,-4.412013888E-1,1.567535996E-1,-8.065994382E-1,9.326483851E-1
1.848097833E0,-2.640995979E-1,-5.416896343E-1,-1.034060359E0,1.196852992E0
1.858038833E0,-1.469034404E-1,-1.480309606E0,-1.293789506E0,1.971493960E0
1.867978833E0,-8.685502410E-2,-2.468142033E0,-1.622518063E0,2.954967640E0
1.877918833E0,-8.310115337E-2,-2.895494223E0,-1.958972931E0,3.496908283E0
1.887859833E0,-2.059993744E-1,-2.715318441E0,-2.090386391E0,3.432944107E0
1.897799833E0,-4.201643169E-1,-2.249109983E0,-2.067186356E0,3.083552043E0
1.907739833E0,-7.184072137E-1,-1.563792467E0,-1.971898079E0,2.617238590E0
1.917680833E0,-9.832271338E-1,-8.227610588E-1,-1.851874471E0,2.252356635E0
1.927620833E0,-1.105838537E0,-3.163100779E-1,-1.714928865E0,2.064924199E0
1.937560833E0,-1.064955711E0,-1.049088389E-1,-1.558910966E0,1.890856930E0
1.947501833E0,-9.077919126E-1,-1.698529571E-1,-1.407633781E0,1.683558448E0
1.957441833E0,-8.439168334E-1,-5.433415771E-1,-1.295359731E0,1.638710628E0
1.967381833E0,-9.510954618E-1,-8.478849530E-1,-1.091096878E0,1.677493329E0
1.977321833E0,-1.502557993E0,-7.079088092E-1,-1.452663660E0,2.206591741E0
1.987262833E0,-2.017508984E0,-1.454055011E-1,-1.390132904E0,2.454374615E0
1.997202833E0,-1.695372701E0,-5.634933338E-2,-7.415915728E-1,1.851329766E0
2.007142833E0,-1.258921027E0,-9.804245830E-2,-2.559247315E-1,1.288406747E0
2.017083833E0,-1.016780853E0,-2.010535300E-1,-6.575450301E-2,1.038551626E0
2.027023833E0,-8.921653628E-1,-2.731436789E-1,1.345088184E-1,9.426871836E-1
2.036963833E0,-7.241755128E-1,-2.109351456E-1,3.799966574E-1,8.445834882E-1
2.046904833E0,-5.271386504E-1,-1.754613072E-1,7.841723561E-1,9.610349167E-1
2.056844833E0,-3.527167439E-1,-1.564316303E-1,1.200380325E0,1.260869891E0
2.066784833E0,-2.461415678E-1,-4.723643064E-1,1.471672893E0,1.565098978E0
2.076725833E0,-1.454548538E-1,-1.054721713E0,1.806868076E0,2.097228469E0
2.086665833E0,1.032231450E0,-1.192603111E0,2.756442308E0,3.175811416E0
2.096605833E0,5.923465490E-1,-1.324796557E0,2.893268824E0,3.236813995E0
2.106546833E0,4.052947834E-2,-8.950701952E-1,2.901004791E0,3.036218387E0
2.116486833E0,-4.536711872E-1,-7.820300758E-2,3.064236879E0,3.098625648E0
2.126426833E0,-6.885082126E-1,-1.290723085E-1,3.509410143E0,3.578639793E0
2.136367833E0,-7.194693089E-1,-8.521648049E-1,4.093476772E0,4.242684648E0
2.146307833E0,-6.973602772E-1,-1.128550887E0,4.794998169E0,4.975132752E0
2.156247833E0,-8.120713234E-1,-1.064497948E0,5.213354588E0,5.382534883E0
2.166188833E0,-1.146264791E0,-4.229452014E-1,5.475796223E0,5.610450061E0
2.176129083E0,-1.506277442E0,2.542352080E-1,5.509872913E0,5.717709926E0
2.186069083E0,-1.661532640E0,4.689792097E-1,5.241285324E0,5.518306268E0
2.196010083E0,-1.442437291E0,5.114683509E-1,4.938639164E0,5.170336740E0
2.205950083E0,-1.287545443E0,4.973714650E-1,4.735199928E0,4.932268241E0
2.215890083E0,-1.169368386E0,6.093969941E-1,4.750202179E0,4.929828380E0
2.225831083E0,-1.013244033E0,8.610723615E-1,4.934750080E0,5.110759966E0
2.235771083E0,-7.303684950E-1,1.220426202E0,5.316349983E0,5.503313129E0
2.245711083E0,-3.132311404E-1,1.593520522E0,5.451181889E0,5.687952653E0
2.255652083E0,-5.664740503E-2,1.266216278E0,5.303032875E0,5.452400413E0
2.265592083E0,4.845504463E-2,5.299084783E-1,5.239995956E0,5.266944893E0
2.275532083E0,1.683156341E-1,-2.710724771E-1,5.150462627E0,5.160336783E0
2.285473083E0,3.886701167E-1,-9.276873469E-1,4.919316769E0,5.021090095E0
2.295413083E0,7.060477138E-1,-1.332654595E0,4.514952660E0,4.760175329E0
2.305353083E0,1.103833914E0,-1.465918064E0,4.020091057E0,4.419105926E0
2.315294083E0,1.485839248E0,-1.359551907E0,3.699472904E0,4.212149027E0
2.325234083E0,1.732568622E0,-1.263659477E0,3.534951210E0,4.134550684E0
2.335174083E0,1.849336743E0,-1.123872876E0,3.394529343E0,4.025663435E0
2.345114083E0,1.846568704E0,-8.903845549E-1,3.259590864E0,3.850653611E0
2.355055083E0,1.763583422E0,-6.902246475E-1,3.157885790E0,3.682238343E0
2.364995083E0,1.627386689E0,-5.191264153E-1,3.119426012E0,3.556500853E0
2.374936083E0,1.565820813E0,-5.725486875E-1,3.093373060E0,3.514052320E0
2.384876083E0,1.631439567E0,-8.259412646E-1,3.040420294E0,3.547947237E0
2.394816083E0,1.679503202E0,-1.121578574E0,2.996457577E0,3.613506263E0
2.404756083E0,1.682659626E0,-1.402674198E0,2.961099863E0,3.683334186E0
2.414697083E0,1.745221257E0,-1.574788094E0,3.109394789E0,3.897959816E0
2.424637083E0,1.334503174E0,-1.295082092E0,4.422025204E0,4.797128646E0
2.434577083E0,-2.496179193E-1,-9.745727181E-1,6.361582756E0,6.440639429E0
2.444518083E0,-2.247155905E0,-9.087116718E-1,7.295775890E0,7.687900390E0
2.454458083E0,-3.960022926E0,-2.524887562E0,5.032153606E0,6.883270204E0
2.464398083E0,-4.755016804E0,-4.299314976E0,1.561626196E0,6.597951988E0
2.474339083E0,-4.770841599E0,-5.141524315E0,-5.831453204E-1,7.038200076E0
2.484279083E0,-2.290282726E0,-7.093938828E0,-1.190747619E0,7.548989531E0
2.494219083E0,1.750620127E0,-8.897804260E0,-1.012459517E0,9.124728256E0
2.504160083E0,4.203255177E0,-8.899693489E0,-9.572470784E-1,9.888792659E0
2.514100083E0,5.395887852E0,-7.932095528E0,-9.413085580E-1,9.639492049E0
2.524040083E0,5.590608120E0,-5.241593838E0,-7.959936857E-1,7.704726540E0
2.533981083E0,3.303592920E0,7.050397396E-1,-4.458076358E-1,3.407279217E0
2.543921083E0,9.753354788E-1,3.476939201E0,-1.353360713E-1,3.613682520E0
2.553861083E0,-7.108176351E-1,3.907968998E0,-5.386466905E-2,3.972453247E0
2.563802083E0,-1.939894199E0,3.599588871E0,-1.680815220E-1,4.092490799E0
2.573742083E0,-2.811865091E0,3.248428345E0,-3.561621308E-1,4.311116267E0
2.583682083E0,-3.292490721E0,2.945634604E0,-4.685651064E-1,4.442613152E0
2.593623083E0,-3.412297964E0,2.730887651E0,-4.297797084E-1,4.391609655E0
2.603563083E0,-2.401109457E0,2.501773357E0,-2.631579638E-1,3.477563611E0
2.613503083E0,-8.754045367E-1,1.925428152E0,-7.514812052E-2,2.116424795E0
2.623444083E0,9.127208591E-2,1.192457795E0,-2.971565351E-2,1.196314844E0
2.633384083E0,3.910560310E-1,5.427749157E-1,-1.204696074E-1,6.797369747E-1
2.643324083E0,3.029895425E-1,4.419577494E-2,-2.800523341E-1,4.149520927E-1
2.653265083E0,1.273035556E-1,-2.077479362E-1,-3.487372398E-1,4.254210417E-1
2.663205083E0,7.878622971E-3,-2.071782947E-1,-2.668373287E-1,3.379157860E-1
2.673145083E0,-5.099680275E-2,-9.424974024E-2,-1.135437340E-1,1.561277264E-1
2.683086083E0,-9.179962426E-2,9.027110040E-2,3.507183865E-2,1.334394112E-1
2.693026083E0,-1.066917405E-1,3.531179130E-1,1.665817648E-1,4.047528534E-1
2.702966083E0,-9.103767574E-2,5.315071344E-1,2.051163763E-1,5.769405690E-1
2.712906083E0,-1.583464071E-2,5.753673911E-1,1.766354889E-1,6.020784555E-1
2.722847083E0,1.822805703E-1,5.214852095E-1,1.612048745E-1,5.754650655E-1
2.732787083E0,4.597278237E-1,4.026192129E-1,1.493675262E-1,6.290966224E-1
2.742727083E0,7.194472551E-1,2.768000066E-1,1.049824804E-1,7.779742398E-1
2.752668083E0,8.645476103E-1,1.714314520E-1,3.215959528E-3,8.813862125E-1
2.762608083E0,9.025692940E-1,1.229616553E-1,-1.214181185E-1,9.189631432E-1
2.772548083E0,9.169948101E-1,1.971679777E-1,-2.313849926E-1,9.660712748E-1
2.782489083E0,9.329186678E-1,3.634791970E-1,-3.121871650E-1,1.048768417E0
2.792429083E0,9.538207054E-1,5.840591788E-1,-3.425789475E-1,1.169726206E0
2.802369083E0,9.430977702E-1,8.124119043E-1,-3.232542574E-1,1.286055917E0
2.812310083E0,8.927944899E-1,1.034289479E0,-2.931340337E-1,1.397413428E0
2.822250083E0,7.736939192E-1,1.233564019E0,-2.644065320E-1,1.479930162E0
2.832190083E0,5.840914845E-1,1.395747304E0,-2.495197058E-1,1.533471057E0
2.842131083E0,3.365205824E-1,1.491515636E0,-2.511562109E-1,1.549498125E0
2.852071083E0,5.913852900E-2,1.496369600E0,-2.617830634E-1,1.520246598E0
2.862011083E0,-2.010339200E-1,1.404164791E0,-2.616573572E-1,1.442413939E0
2.871952083E0,-3.929071128E-1,1.240529895E0,-2.305189371E-1,1.321525406E0
2.881892083E0,-5.040147305E-1,1.017429233E0,-1.844846010E-1,1.150316330E0
2.891832083E0,-5.326752663E-1,7.508103848E-1,-1.710102856E-1,9.363245649E-1
2.901773083E0,-5.091789961E-1,4.787847698E-1,-1.709530205E-1,7.195297360E-1
2.911713083E0,-4.555663466E-1,2.379207164E-1,-1.506015360E-1,5.355630552E-1
2.921653083E0,-3.991060257E-1,4.986212775E-2,-1.113303080E-1,4.173323484E-1
2.931594083E0,-3.307768106E-1,-7.396024466E-2,-6.594476104E-2,3.453000547E-1
2.941534083E0,-2.538021207E-1,-1.664494425E-1,-3.161448985E-2,3.051563687E-1
2.951474083E0,-1.549388915E-1,-2.388101667E-1,-5.103042349E-3,2.847145885E-1
2.961415083E0,-4.286189005E-2,-2.990657687E-1,1.645471528E-2,3.025693859E-1
2.971355083E0,7.386124879E-2,-3.420579731E-1,3.873807564E-2,3.520792234E-1
2.981295083E0,1.873782277E-1,-3.666365743E-1,6.282637268E-2,4.165094608E-1
2.991235083E0,2.819224000E-1,-3.703343570E-1,1.004772335E-1,4.761548593E-1
3.001176083E0,3.543470502E-1,-3.650743365E-1,1.294881105E-1,5.249840702E-1
3.011116083E0,4.051256478E-1,-3.451329172E-1,1.496811062E-1,5.528543701E-1
3.021056083E0,4.280488193E-1,-3.296096325E-1,1.596354693E-1,5.633398482E-1
3.030997083E0,4.226017296E-1,-3.029949963E-1,1.596950144E-1,5.439675425E-1
3.040937083E0,3.943530619E-1,-2.783341110E-1,1.466098428E-1,5.044587801E-1
3.050877083E0,3.317413926E-1,-2.516675293E-1,1.253777146E-1,4.348660348E-1
3.060818083E0,2.456405908E-1,-2.184033096E-1,1.118142307E-1,3.471911976E-1
3.070758083E0,1.431535631E-1,-1.869402826E-1,1.044913083E-1,2.576005540E-1
3.080698083E0,3.207204491E-2,-1.691271961E-1,1.033269763E-1,2.007712344E-1
3.090639083E0,-6.433267891E-2,-1.764925718E-1,1.058716029E-1,2.156319035E-1
3.100579083E0,-1.401358396E-1,-2.084481120E-1,8.892164379E-2,2.664502349E-1
3.110519083E0,-1.825201958E-1,-2.677983940E-1,3.653244674E-2,3.261352808E-1
3.120460083E0,-2.076375335E-1,-3.398701847E-1,-5.787794665E-2,4.024611093E-1
3.130400083E0,-2.278537005E-1,-4.044098854E-1,-1.568449736E-1,4.899642946E-1
3.140340083E0,-2.432097495E-1,-4.312337935E-1,-2.224064171E-1,5.427505700E-1
3.150281083E0,-2.619043589E-1,-3.843514919E-1,-2.269183397E-1,5.175054545E-1
3.160221083E0,-2.857992947E-1,-2.607379556E-1,-1.976219714E-1,4.344191086E-1
3.170160750E0,-3.077528775E-1,-9.569185227E-2,-1.842200160E-1,3.712220070E-1
3.180101750E0,-3.272511959E-1,7.557017356E-2,-1.934555918E-1,3.875941980E-1
3.190041750E0,-3.419269919E-1,2.350526899E-1,-2.094969302E-1,4.648148004E-1
3.199981750E0,-3.362315595E-1,3.704134524E-1,-2.094926685E-1,5.423513303E-1
3.209922750E0,-3.170214593E-1,4.770908058E-1,-1.851943880E-1,6.020093056E-1
3.219862750E0,-2.926604748E-1,5.593491793E-1,-1.502696872E-1,6.489242149E-1
3.229802750E0,-2.512795627E-1,6.037010550E-1,-1.239658892E-1,6.655553502E-1
3.239742750E0,-2.069706768E-1,6.119845510E-1,-1.201834008E-1,6.571194728E-1
3.249683750E0,-1.606593728E-1,5.958412886E-1,-1.222428232E-1,6.291117413E-1
3.259623750E0,-9.991720319E-2,5.523838401E-1,-1.073352471E-1,5.715174622E-1
3.269563750E0,-4.482261464E-2,4.814465046E-1,-3.516916931E-2,4.848058106E-1
3.279504750E0,-4.953230731E-3,3.661393523E-1,5.856611207E-2,3.708268454E-1
3.289444750E0,2.178576030E-2,1.946270019E-1,1.041198000E-1,2.217999594E-1
3.299384750E0,4.972338676E-2,-2.035668306E-2,9.764724970E-2,1.114531072E-1
3.309325750E0,1.009439230E-1,-2.458201796E-1,7.325488329E-2,2.756510733E-1
3.319265750E0,1.761265695E-1,-4.613021314E-1,6.769660115E-2,4.984004963E-1
3.329205750E0,2.598724663E-1,-6.445088387E-1,8.595914394E-2,7.002244756E-1
3.339146750E0,3.370458186E-1,-7.966048717E-1,1.083536670E-1,8.717337453E-1
3.349086750E0,3.990353644E-1,-9.080396295E-1,1.255071610E-1,9.997585899E-1
3.359026750E0,4.621211290E-1,-9.754080176E-1,1.248291284E-1,1.086535342E0
3.368967750E0,5.268623233E-1,-9.858294725E-1,1.111354232E-1,1.123296372E0
3.378907750E0,5.772368312E-1,-9.259328246E-1,8.107045293E-2,1.094132704E0
3.388847750E0,5.863260031E-1,-8.144680262E-1,3.283658996E-2,1.004098894E0
3.398788750E0,5.369302034E-1,-6.279498339E-1,-3.125078231E-2,8.267960139E-1
3.408728750E0,4.273982644E-1,-3.871395290E-1,-9.122245759E-2,5.838388717E-1
3.418668750E0,2.723223865E-1,-1.140144989E-1,-1.341073513E-1,3.242584923E-1
3.428609750E0,8.893450350E-2,1.386008412E-1,-1.604615003E-1,2.299291894E-1
3.438549750E0,-7.565364242E-2,3.207599819E-1,-1.671502888E-1,3.695262624E-1
3.448489750E0,-2.078913748E-1,4.033605158E-1,-1.494866312E-1,4.777706378E-1
3.458430750E0,-2.987131476E-1,4.005351663E-1,-1.159595698E-1,5.129372143E-1
3.468370750E0,-3.636521399E-1,3.437664509E-1,-7.514551282E-2,5.060287538E-1
3.478310750E0,-4.062241018E-1,2.690807581E-1,-4.290421680E-2,4.891454253E-1
3.488250750E0,-4.225857258E-1,1.985075921E-1,-3.004389070E-2,4.678531769E-1
3.498191750E0,-4.154673815E-1,1.404525489E-1,-2.430105023E-2,4.392386647E-1
3.508131750E0,-3.902496099E-1,9.136492014E-2,-1.445044391E-2,4.010624914E-1
3.518071750E0,-3.505866230E-1,5.256532505E-2,3.926167265E-3,3.545271617E-1
3.528012750E0,-3.060819805E-1,1.919400506E-2,2.295522206E-2,3.075411043E-1
3.537952750E0,-2.566912472E-1,-6.314816885E-3,3.936162591E-2,2.597683793E-1
3.547892750E0,-2.024562061E-1,-3.547848389E-2,4.525395483E-2,2.104641505E-1
3.557833750E0,-1.429758370E-1,-6.856106967E-2,5.238855630E-2,1.669948235E-1
3.567773750E0,-8.718899637E-2,-1.054884493E-1,5.976056308E-2,1.493353908E-1
3.577713750E0,-3.112466075E-2,-1.456228197E-1,5.731684715E-2,1.595618096E-1
3.587654750E0,1.521142572E-2,-1.802161485E-1,5.106824636E-2,1.879287456E-1
3.597594750E0,5.870031565E-2,-2.130324244E-1,5.023308098E-2,2.266095835E-1
3.607534750E0,1.012964398E-1,-2.263824195E-1,4.583936930E-2,2.522126411E-1
3.617475750E0,1.438236684E-1,-2.390526682E-1,3.151236102E-2,2.807569316E-1
3.627415750E0,1.842910200E-1,-2.388333827E-1,1.992481388E-2,3.023269141E-1
3.637355750E0,2.329224646E-1,-2.379622608E-1,8.518762887E-3,3.330938027E-1
3.647296750E0,2.728438377E-1,-2.273921967E-1,-4.540432710E-4,3.551776697E-1
3.657236750E0,3.045794070E-1,-2.115583718E-1,-1.198739465E-2,3.710380809E-1
3.667176750E0,3.178563118E-1,-1.818835288E-1,-2.697153576E-2,3.672080020E-1
3.677117750E0,3.146724999E-1,-1.326440722E-1,-3.607475385E-2,3.433869828E-1
3.687057750E0,2.959189415E-1,-7.102370262E-2,-4.064615071E-2,3.070252365E-1
3.696997750E0,2.634411454E-1,2.672523260E-4,-3.667617589E-2,2.659820490E-1
3.706937750E0,2.165153176E-1,7.705350220E-2,-1.517959125E-2,2.303183556E-1
3.716878750E0,1.424136609E-1,1.515815258E-1,-1.687750453E-3,2.079938900E-1
3.726818750E0,5.239826441E-2,2.147786021E-1,1.408924256E-2,2.215263704E-1
3.736758750E0,-3.662481904E-2,2.601633966E-1,2.962985262E-2,2.643942103E-1
3.746699750E0,-1.113872528E-1,2.764067352E-1,4.270339012E-2,3.010504657E-1
3.756639750E0,-1.643205136E-1,2.565033138E-1,5.986959487E-2,3.104505590E-1
3.766579750E0,-2.040620744E-1,2.232095450E-1,6.916135550E-2,3.102372065E-1
3.776520750E0,-2.333533764E-1,1.758417636E-1,7.457476854E-2,3.015551694E-1
3.786460750E0,-2.510364354E-1,1.230564192E-1,8.310916275E-2,2.916664313E-1
3.796400750E0,-2.429286987E-1,7.084754109E-2,9.465716779E-2,2.701734741E-1
3.806341750E0,-2.080494314E-1,1.356946491E-2,1.087978259E-1,2.351715612E-1
3.816281750E0,-1.495943666E-1,-5.297547579E-2,1.146413311E-1,1.957741309E-1
3.826221750E0,-7.886340469E-2,-1.252051592E-1,1.086051688E-1,1.835506774E-1
3.836162750E0,-7.467784453E-3,-2.048176974E-1,7.903929055E-2,2.196662615E-1
3.846102750E0,6.605739146E-2,-2.752903998E-1,5.225042254E-2,2.878862446E-1
3.856042750E0,1.421353817E-1,-3.242350519E-1,4.276690632E-2,3.565947895E-1
3.865983750E0,1.982711554E-1,-3.363499343E-1,2.975126728E-2,3.915710246E-1
3.875923750E0,2.329798639E-1,-3.212053478E-1,1.307082362E-2,3.970180586E-1
3.885863750E0,2.226359248E-1,-2.686180174E-1,-5.926251411E-3,3.489376947E-1
3.895803750E0,1.635603607E-1,-1.863154024E-1,-3.071309067E-2,2.498173627E-1
3.905744750E0,8.192872256E-2,-8.160832524E-2,-4.609713331E-2,1.244876702E-1
3.915684750E0,-4.838926718E-3,2.646701597E-2,-5.189589784E-2,5.845598650E-2
3.925624750E0,-9.437747300E-2,1.124773398E-1,-5.600947514E-2,1.571474489E-1
3.935565750E0,-1.693574339E-1,1.439899802E-1,-6.870263070E-2,2.326695216E-1
3.945505750E0,-2.199686319E-1,1.168042570E-1,-8.605799824E-2,2.635060009E-1
3.955445750E0,-2.575197220E-1,5.451159179E-2,-1.030068919E-1,2.826629453E-1
3.965386750E0,-2.837456465E-1,-2.056312189E-2,-1.058712825E-1,3.035509222E-1
3.975326750E0,-3.088824153E-1,-1.049618945E-1,-1.054813936E-1,3.428580904E-1
3.985266750E0,-3.153295517E-1,-1.805896312E-1,-1.108451560E-1,3.799105022E-1
3.995207750E0,-2.979561687E-1,-2.434900403E-1,-1.188391671E-1,4.027257451E-1
4.005147750E0,-2.484786659E-1,-2.935819924E-1,-1.314132363E-1,4.064498399E-1
4.015087750E0,-1.773807853E-1,-3.198972344E-1,-1.453506202E-1,3.936051148E-1
4.025028750E0,-1.121450514E-1,-3.047185838E-1,-1.425925046E-1,3.546301598E-1
4.034968750E0,-6.092634052E-2,-2.544343770E-1,-1.409296393E-1,2.971700429E-1
4.044908750E0,-2.405476756E-2,-1.743833572E-1,-1.442024261E-1,2.275577438E-1
4.054849750E0,-7.988184690E-3,-6.824307889E-2,-1.488421857E-1,1.639357349E-1
4.064789750E0,9.400608018E-3,5.150001496E-2,-1.566294432E-1,1.651466180E-1
4.074729750E0,3.520104662E-2,1.682966650E-1,-1.638492793E-1,2.375067735E-1
4.084670750E0,6.107965484E-2,2.819395363E-1,-1.602361053E-1,3.299942967E-1
4.094610750E0,7.108834386E-2,3.738039434E-1,-1.487773210E-1,4.085555433E-1
4.104550750E0,6.273788214E-2,4.366917014E-1,-1.197066084E-1,4.571272865E-1
4.114490750E0,4.451280460E-2,4.607437849E-1,-8.511481434E-2,4.706492927E-1
4.124431750E0,1.385998074E-2,4.387864172E-1,-4.463260993E-2,4.412682732E-1
4.134371750E0,-2.138322778E-2,3.865823448E-1,2.158066258E-3,3.871792982E-1
4.144311750E0,-5.810536072E-2,3.211068809E-1,5.324026570E-2,3.306363377E-1
4.154252750E0,-9.151125699E-2,2.455594093E-1,8.748240024E-2,2.762732415E-1
4.164192750E0,-1.005474627E-1,1.703419685E-1,1.061806008E-1,2.245005534E-1
4.174132583E0,-8.721141517E-2,1.068293154E-1,1.123990864E-1,1.779097754E-1
4.184073583E0,-5.967932567E-2,4.622412100E-2,1.066600010E-1,1.306699931E-1
4.194013583E0,-2.882367373E-2,-7.218596525E-3,1.003962457E-1,1.047010910E-1
4.203953583E0,9.205716662E-3,-4.810239002E-2,1.029860675E-1,1.140382184E-1
4.213894583E0,5.136142671E-2,-7.152915001E-2,1.151266173E-1,1.449432767E-1
4.223834583E0,9.809480608E-2,-8.348543197E-2,1.253982186E-1,1.797696347E-1
4.233774583E0,1.362136900E-1,-9.446670860E-2,1.210759059E-1,2.052742151E-1
4.243715583E0,1.554988921E-1,-9.299947321E-2,1.086019203E-1,2.112420047E-1
4.253655583E0,1.563023776E-1,-7.188886404E-2,9.147194028E-2,1.948475247E-1
4.263595583E0,1.455355287E-1,-3.280316293E-2,7.743141055E-2,1.680840889E-1
4.273536583E0,1.181390509E-1,2.092584781E-2,5.987504870E-2,1.340885823E-1
4.283476583E0,7.162363827E-2,7.083076239E-2,4.264242947E-2,1.093861017E-1
4.293416583E0,1.207429450E-2,1.051000506E-1,2.757879160E-2,1.093270276E-1
4.303356583E0,-3.932494298E-2,1.097691283E-1,1.658228040E-2,1.177738710E-1
4.313297583E0,-7.273216546E-2,7.808203250E-2,7.897710428E-3,1.070006800E-1
4.323237583E0,-8.844870329E-2,-2.914426150E-3,-1.186483447E-2,8.928852832E-2
4.333177583E0,-9.439474344E-2,-9.452103823E-2,-1.891794987E-2,1.349165782E-1
4.343118583E0,-8.578119427E-2,-1.868607104E-1,-8.344532922E-3,2.057789338E-1
4.353058583E0,-8.139523864E-2,-2.657057345E-1,-2.716741525E-3,2.779066442E-1
4.362998583E0,-7.328133285E-2,-3.276508152E-1,5.786251277E-3,3.357956092E-1
4.372939583E0,-5.952397361E-2,-3.591040671E-1,1.064252574E-2,3.641594401E-1
4.382879583E0,-3.833259642E-2,-3.676674664E-1,1.978025585E-2,3.701891575E-1
4.392819583E0,-2.081299201E-2,-3.577447832E-1,2.517102659E-2,3.592326420E-1
4.402760583E0,-2.964500804E-3,-3.310754299E-1,2.129242383E-2,3.317726569E-1
4.412700583E0,-3.105115844E-3,-2.911197543E-1,8.331086487E-3,2.912554894E-1
4.422640583E0,-8.662672713E-3,-2.431754172E-1,-1.700136345E-3,2.433356034E-1
4.432581583E0,-1.463055052E-2,-1.971365511E-1,-1.538505498E-2,1.982765057E-1
4.442521583E0,-2.106885053E-2,-1.539305598E-1,-2.362924255E-2,1.571523299E-1
4.452461583E0,-1.135603525E-2,-1.108310297E-1,-2.577468567E-2,1.143538854E-1
4.462402583E0,5.422804505E-3,-7.307691872E-2,-2.677928284E-2,7.801777264E-2
4.472342583E0,2.422818355E-2,-4.319412261E-2,-3.539806977E-2,6.087495749E-2
4.482282583E0,3.953170031E-2,-1.714365557E-2,-4.619069025E-2,6.316834747E-2
4.492222583E0,6.247669831E-2,4.129409324E-3,-5.096067861E-2,8.073029553E-2
4.502163583E0,8.496496081E-2,1.308748405E-2,-5.803243443E-2,1.037212141E-1
4.512103583E0,1.126248166E-1,2.600222360E-3,-6.038667262E-2,1.278188589E-1
4.522043583E0,1.344481558E-1,-2.330165170E-2,-6.218185648E-2,1.499528487E-1
4.531984583E0,1.516031772E-1,-5.797680840E-2,-5.199153349E-2,1.704346009E-1
4.541924583E0,1.647176594E-1,-9.243144095E-2,-4.550130665E-2,1.942829058E-1
4.551864583E0,1.561577171E-1,-1.167437062E-1,-3.040384501E-2,1.973289622E-1
4.561805583E0,1.310839057E-1,-1.327164322E-1,-1.964310557E-2,1.875699691E-1
4.571745583E0,8.538831770E-2,-1.345164627E-1,-4.197035916E-3,1.593846249E-1
4.581685583E0,2.809173800E-2,-1.219748408E-1,2.099753171E-2,1.269169172E-1
4.591626583E0,-4.773964360E-2,-1.106761098E-1,7.180026174E-2,1.402980842E-1
4.601566583E0,-1.287611574E-1,-1.057424843E-1,1.161298752E-1,2.030937137E-1
4.611506583E0,-2.049326152E-1,-1.172249690E-1,1.227566227E-1,2.660982122E-1
4.621447583E0,-2.592949867E-1,-1.400264651E-1,1.082907096E-1,3.139556957E-1
4.631387583E0,-2.913242877E-1,-1.595682055E-1,8.767250925E-2,3.435379479E-1
4.641327583E0,-2.949184179E-1,-1.659186780E-1,6.769079715E-2,3.450911836E-1
4.651268583E0,-2.771165073E-1,-1.431941837E-1,4.100618511E-2,3.146102987E-1
4.661208583E0,-2.381496578E-1,-9.693060070E-2,7.652086671E-3,2.572340477E-1
4.671148583E0,-1.759179682E-1,-2.749266848E-2,-2.744518220E-2,1.801560889E-1
4.681088583E0,-1.027261093E-1,6.585881859E-2,-5.813177302E-2,1.351641245E-1
4.691029583E0,-2.725265548E-2,1.732750237E-1,-7.790494710E-2,1.919273869E-1
4.700969583E0,4.591157287E-2,2.764972150E-1,-7.537400723E-2,2.902409747E-1
4.710909583E0,1.063019410E-1,3.594988883E-1,-5.928505585E-2,3.795448210E-1
4.720850583E0,1.612865925E-1,4.091865420E-1,-3.339774162E-2,4.410922809E-1
4.730790583E0,2.110719979E-1,4.152335227E-1,-7.707253098E-5,4.658006790E-1
4.740730583E0,2.455520928E-1,3.783073425E-1,4.443545267E-2,4.531961884E-1
4.750671583E0,2.609006763E-1,3.100467920E-1,8.985672891E-2,4.150571140E-1
4.760611583E0,2.628301084E-1,2.212990522E-1,1.299329400E-1,3.673356848E-1
4.770551583E0,2.580084503E-1,1.224518418E-1,1.430229098E-1,3.194031413E-1
4.780492583E0,2.586684525E-1,1.050756220E-2,1.234015673E-1,2.867886400E-1
4.790432583E0,2.639207542E-1,-8.379896730E-2,1.013676375E-1,2.948759559E-1
4.800372583E0,2.583630085E-1,-1.454301178E-1,8.258382976E-2,3.077685044E-1
4.810313583E0,2.376707792E-1,-1.692827195E-1,7.072610408E-2,3.002436015E-1
4.820253583E0,1.967728436E-1,-1.492112726E-1,5.862528458E-2,2.538118985E-1
4.830193583E0,1.416848302E-1,-9.334136546E-2,2.443748526E-2,1.714187630E-1
4.840133583E0,8.034224808E-2,-3.157825395E-2,-2.860078029E-2,9.093991194E-2
4.850074583E0,2.347789891E-2,2.885339782E-2,-6.995141506E-2,7.922708358E-2
4.860014583E0,-2.336117253E-2,7.952807099E-2,-8.714222908E-2,1.202673129E-1
4.869954583E0,-7.019206136E-2,1.231032461E-1,-9.236255288E-2,1.691513401E-1
4.879895583E0,-1.114317328E-1,1.491747350E-1,-9.231328964E-2,2.078265528E-1
4.889835583E0,-1.342108250E-1,1.602100730E-1,-7.596680522E-2,2.223752876E-1
4.899775583E0,-1.542020738E-1,1.540129185E-1,-6.010597199E-2,2.260773905E-1
4.909716583E0,-1.630730629E-1,1.317107975E-1,-4.995853081E-2,2.154910969E-1
4.919656583E0,-1.651623100E-1,9.634242207E-2,-5.033802986E-2,1.977229582E-1
4.929596583E0,-1.532404125E-1,6.595362723E-2,-4.949274287E-2,1.740173456E-1
4.939537583E0,-1.294913888E-1,4.174337536E-2,-4.823855311E-2,1.443519559E-1
4.949477583E0,-1.048851162E-1,3.217064217E-2,-4.391810670E-2,1.181720691E-1
4.959417583E0,-8.290585130E-2,3.269364685E-2,-3.202033043E-2,9.469718204E-2
4.969358583E0,-5.537569150E-2,4.662730545E-2,-2.372405119E-2,7.618007238E-2
4.979298583E0,-2.721851319E-2,7.010206580E-2,-1.169045269E-2,7.610396688E-2
4.989238583E0,8.943218738E-3,1.027422994E-1,1.430942211E-3,1.031407235E-1
4.999178583E0,4.026071355E-2,1.369144768E-1,1.825538464E-2,1.438741049E-1
5.009119583E0,6.559589505E-2,1.662241518E-1,3.497737274E-2,1.820898314E-1
5.019059583E0,9.160666168E-2,1.849937588E-1,4.062511027E-2,2.103921834E-1
5.028999583E0,1.157921553E-1,1.896790564E-1,4.723747447E-2,2.271945128E-1
5.038940583E0,1.321451813E-1,1.831472665E-1,6.594806910E-2,2.352751963E-1
5.048880583E0,1.421200484E-1,1.600970775E-1,7.325285673E-2,2.262634822E-1
5.058820583E0,1.515555680E-1,1.196199134E-1,7.911058515E-2,2.086540164E-1
5.068761583E0,1.615578681E-1,6.748586893E-2,7.902616262E-2,1.920948246E-1
5.078701583E0,1.720019430E-1,1.504554786E-2,7.213714719E-2,1.871224329E-1
5.088641583E0,1.647349745E-1,-2.079394273E-2,5.349049717E-2,1.744455020E-1
5.098582583E0,1.422498226E-1,-2.835130319E-2,3.366632387E-2,1.489034244E-1
5.108522583E0,1.108008176E-1,-1.227539149E-3,1.385080814E-2,1.116699285E-1
5.118462583E0,7.693932950E-2,4.498452693E-2,-8.325029630E-4,8.912890187E-2
5.128403583E0,4.674733803E-2,1.058902293E-1,-9.962351993E-3,1.161778926E-1
5.138343583E0,2.366465889E-2,1.542909890E-1,-1.453992724E-2,1.567709631E-1
5.148283583E0,1.343146246E-2,1.843655258E-1,-1.838952675E-2,1.857665901E-1
5.158223583E0,1.003434975E-2,1.916746497E-1,-1.833948493E-2,1.928112969E-1
5.168164583E0,1.471565384E-2,1.706998497E-1,-1.265869662E-2,1.717999760E-1
5.178104833E0,7.365226280E-3,1.372900456E-1,-1.510811970E-3,1.374957663E-1
5.188044833E0,-4.402326595E-4,9.990194440E-2,1.975239813E-2,1.018368771E-1
5.197985833E0,-1.024918817E-2,6.340944022E-2,3.733538836E-2,7.429491363E-2
5.207925833E0,-5.355628673E-3,2.405298315E-2,5.080965161E-2,5.646989865E-2
5.217865833E0,1.828271151E-2,-1.023423159E-3,6.474352628E-2,6.728320095E-2
5.227806833E0,4.904781282E-2,-7.148426957E-3,7.955815643E-2,9.373520259E-2
5.237746833E0,6.252930313E-2,-1.727276249E-3,9.059237689E-2,1.100903083E-1
5.247686833E0,7.034808397E-2,1.189585775E-2,9.589499980E-2,1.195249570E-1
5.257627833E0,7.260282338E-2,3.327551112E-2,9.915054590E-2,1.273155935E-1
5.267567833E0,7.915792614E-2,5.746287107E-2,1.016288847E-1,1.410545604E-1
5.277507833E0,8.976609260E-2,7.684535533E-2,1.002445742E-1,1.549584934E-1
5.287448833E0,9.469667077E-2,9.191192687E-2,1.012179628E-1,1.663139734E-1
5.297388833E0,8.303765208E-2,1.001329124E-1,1.003423929E-1,1.642876977E-1
5.307328833E0,6.209934503E-2,1.052887961E-1,9.722356498E-2,1.561873261E-1
5.317268833E0,4.133943841E-2,1.045872420E-1,8.853305876E-2,1.431277152E-1
5.327209833E0,3.480750322E-2,9.855118394E-2,7.967431843E-2,1.314225824E-1
5.337149833E0,5.392374471E-2,9.214504808E-2,7.886607945E-2,1.327340899E-1
5.347089833E0,7.423514128E-2,8.469378948E-2,7.824662328E-2,1.371365314E-1
5.357030833E0,8.183832467E-2,8.534932137E-2,7.594919950E-2,1.405357568E-1
5.366970833E0,7.435723394E-2,8.956270665E-2,7.803844661E-2,1.401444819E-1
5.376910833E0,5.891574919E-2,9.768990427E-2,7.455402613E-2,1.362816411E-1
5.386851833E0,5.299474299E-2,1.030641645E-1,6.658185273E-2,1.336555570E-1
5.396791833E0,5.332394689E-2,1.069300324E-1,5.488732457E-2,1.314918003E-1
5.406731833E0,4.753423482E-2,1.121128052E-1,4.479900375E-2,1.297525927E-1
5.416672833E0,3.094165958E-2,1.342798769E-1,3.411163017E-2,1.419580042E-1
5.426612833E0,1.959898882E-2,1.792955548E-1,1.235280558E-2,1.807860839E-1
5.436552833E0,1.338514127E-2,2.447167635E-1,-5.631547421E-3,2.451472428E-1
5.446493833E0,1.184050832E-2,3.171486259E-1,-6.549006328E-3,3.174371402E-1
5.456433833E0,-3.925157245E-3,3.675026000E-1,3.003552929E-2,3.687488317E-1
5.466373833E0,-1.576077752E-2,3.765312433E-1,2.015573531E-2,3.773995667E-1
5.476313833E0,-1.169626135E-2,3.593493104E-1,-9.827464819E-3,3.596738918E-1
5.486254833E0,3.949277569E-3,3.163342178E-1,-4.750147928E-3,3.163945291E-1
5.496194833E0,8.878165856E-3,2.483351380E-1,3.227445111E-2,2.505809306E-1
5.506134833E0,-7.570582442E-3,1.540571004E-1,3.929933906E-2,1.591707949E-1
5.516075833E0,-2.609512210E-2,5.829530582E-2,3.163414448E-2,7.127423921E-2
5.526015833E0,-4.717776924E-2,-2.183095738E-2,3.310607374E-2,6.163071255E-2
5.535955833E0,-6.647455692E-2,-6.255397201E-2,3.048027679E-2,9.623363968E-2
5.545896833E0,-8.006866276E-2,-7.231924683E-2,2.181115560E-2,1.100762950E-1
5.555836833E0,-8.440265805E-2,-5.221795663E-2,3.261918668E-3,9.930339266E-2
5.565776833E0,-7.217821479E-2,-1.281941961E-2,-2.206314541E-2,7.655595728E-2
5.575717833E0,-4.825647175E-2,3.430542350E-2,-3.279152885E-2,6.768185512E-2
5.585657833E0,-1.586338133E-2,7.895437628E-2,-3.562166914E-2,8.805875149E-2
5.595597833E0,1.573614404E-2,1.108252555E-1,-3.719820827E-2,1.179557976E-1
5.605537833E0,4.690365121E-2,1.291414201E-1,-3.709167987E-2,1.423139192E-1
5.615478833E0,7.462369651E-2,1.480149776E-1,-1.203506533E-2,1.661985934E-1
5.625418833E0,8.077079803E-2,1.738678813E-1,3.612500802E-2,1.950871040E-1
5.635358833E0,7.466843724E-2,1.758655161E-1,3.614285216E-2,1.944488648E-1
5.645299833E0,7.417494804E-2,1.471968591E-1,2.213542163E-2,1.663093958E-1
5.655239833E0,8.883283287E-2,9.521067888E-2,3.509660065E-2,1.348633269E-1
5.665179833E0,9.975551814E-2,2.771418914E-2,6.441480666E-2,1.219364876E-1
5.675120833E0,1.003081650E-1,-4.428216070E-2,8.813806623E-2,1.406803342E-1
5.685060833E0,8.750475198E-2,-1.039652005E-1,1.028549597E-1,1.704258996E-1
5.695000833E0,6.998637319E-2,-1.513245851E-1,1.126860380E-1,2.012346035E-1
5.704941833E0,5.054768920E-2,-1.741526574E-1,1.198669821E-1,2.173759655E-1
5.714881833E0,3.847566992E-2,-1.808195114E-1,1.170806587E-1,2.188240241E-1
5.724821833E0,2.809386887E-2,-1.774921566E-1,9.595619142E-2,2.037162777E-1
5.734761833E0,1.750469580E-2,-1.625788808E-1,7.503906637E-2,1.799143361E-1
5.744702833E0,3.589145839E-3,-1.292560846E-1,4.913796112E-2,1.383277145E-1
5.754642833E0,-7.468012627E-3,-8.137115836E-2,2.520223893E-2,8.551134119E-2
5.764582833E0,-1.198313572E-2,-2.791831829E-2,-4.976170138E-3,3.078620319E-2
5.774523833E0,-1.423171489E-3,1.811607555E-2,-2.510314435E-2,3.099008658E-2
5.784463833E0,1.537231915E-2,4.637887329E-2,-4.296389967E-2,6.506308292E-2
5.794403833E0,3.085251153E-2,6.121456251E-2,-4.998564348E-2,8.483905164E-2
5.804344833E0,4.672495276E-2,7.053429633E-2,-5.367571861E-2,1.001967611E-1
5.814284833E0,5.094570667E-2,7.386452705E-2,-5.072333664E-2,1.030741979E-1
5.824224833E0,4.851796851E-2,6.863062084E-2,-4.542950541E-2,9.554054294E-2
5.834165833E0,3.951364756E-2,5.329192430E-2,-3.958093747E-2,7.725288441E-2
5.844105833E0,2.954942733E-2,3.638777509E-2,-2.749311924E-2,5.434252881E-2
5.854045833E0,2.570961230E-2,1.184185687E-2,-1.249528676E-2,3.094100725E-2
5.863986833E0,1.873426139E-2,-1.757888310E-2,5.035770591E-3,2.617916474E-2
5.873926833E0,4.288706463E-3,-4.274763912E-2,1.201277319E-2,4.461009273E-2
5.883866833E0,-1.445169095E-2,-5.477261171E-2,1.974446326E-2,5.998945069E-2
5.893806833E0,-4.312255606E-2,-5.996182188E-2,1.941087469E-2,7.636594124E-2
5.903747833E0,-6.377856433E-2,-5.831705406E-2,1.109994762E-2,8.713089521E-2
5.913687833E0,-7.727985084E-2,-4.429350421E-2,-7.490678690E-4,8.907665779E-2
5.923627833E0,-7.598422468E-2,-2.972974256E-2,-5.357668269E-3,8.176897090E-2
5.933568833E0,-7.409657538E-2,-1.331087947E-2,-9.670523927E-3,7.590125841E-2
5.943508833E0,-8.294359595E-2,-1.888049766E-3,-1.178294327E-2,8.379762880E-2
5.953448833E0,-9.543023258E-2,5.436094478E-3,-6.884910632E-3,9.583257488E-2
5.963389833E0,-1.053694189E-1,9.397813119E-3,-3.235847689E-3,1.058371581E-1
5.973329833E0,-1.053678617E-1,-6.274434738E-3,-1.889700303E-3,1.055714250E-1
5.983269833E0,-9.556742758E-2,-2.598848380E-2,1.106356038E-3,9.904422511E-2
5.993210833E0,-8.006659895E-2,-4.780042544E-2,-6.940624677E-3,9.350782433E-2
6.003150833E0,-6.770074368E-2,-5.530814081E-2,-9.343861602E-3,8.791864924E-2
6.013090833E0,-5.783744156E-2,-4.833224788E-2,-1.145723835E-2,7.623938708E-2
6.023030833E0,-3.330706805E-2,-3.325982019E-2,-1.962408796E-2,5.099687490E-2
6.032971833E0,-1.003576536E-2,-9.999884292E-3,-1.474901102E-2,2.045110262E-2
6.042911833E0,1.528210845E-2,4.099423066E-3,-1.159982383E-2,1.961897095E-2
6.052851833E0,2.896081656E-2,1.200991310E-2,-7.722262293E-3,3.228932089E-2
6.062792833E0,3.149668127E-2,1.724462211E-2,-9.940409102E-3,3.725895404E-2
6.072732833E0,3.210400417E-2,1.690866053E-2,-3.598810406E-3,3.646260168E-2
6.082672833E0,3.641432896E-2,1.286822371E-3,1.005281974E-2,3.779839217E-2
6.092613833E0,4.662245512E-2,-2.162197419E-2,2.422381938E-2,5.681510815E-2
6.102553833E0,5.003849417E-2,-5.117267743E-2,3.097360209E-2,7.798626700E-2
6.112493833E0,4.678911716E-2,-7.158982754E-2,3.323590383E-2,9.175483745E-2
6.122434833E0,3.932613879E-2,-7.872416824E-2,3.190618753E-2,9.360579395E-2
6.132374833E0,2.286684886E-2,-6.853166223E-2,3.103970177E-2,7.863170220E-2
6.142314833E0,1.354232151E-2,-5.590029061E-2,3.282215446E-2,6.622334019E-2
6.152254833E0,1.242327970E-2,-5.151618272E-2,4.017951339E-2,6.650299435E-2
6.162195833E0,1.360998489E-2,-6.337230653E-2,4.914078116E-2,8.133939572E-2
6.172135583E0,-2.514819382E-3,-8.176898956E-2,7.111436129E-2,1.083962377E-1
6.182075583E0,-3.868640214E-2,-1.117889360E-1,8.627254516E-2,1.464115978E-1
6.192016583E0,-9.131442755E-2,-1.412197798E-1,8.862246573E-2,1.900928519E-1
6.201956583E0,-1.329886466E-1,-1.681675017E-1,6.759707630E-2,2.248013645E-1
6.211896583E0,-1.399044394E-1,-1.606167555E-1,2.600704692E-2,2.145864879E-1
6.221837583E0,-1.175986007E-1,-1.224725693E-1,-2.596108057E-2,1.717641954E-1
6.231777583E0,-7.897470891E-2,-6.474606693E-2,-7.252162695E-2,1.252535197E-1
6.241717583E0,-3.559234366E-2,5.969653837E-3,-1.092146635E-1,1.150230169E-1
6.251658583E0,1.183743682E-2,8.610222489E-2,-1.028887779E-1,1.346841440E-1
6.261598583E0,5.552553013E-2,1.876008809E-1,-5.371430889E-2,2.028851941E-1
6.271538583E0,9.166342020E-2,2.565166950E-1,-4.746805131E-2,2.765071669E-1
6.281478583E0,1.322225630E-1,2.923836112E-1,-7.579582930E-2,3.297210791E-1
6.291419583E0,1.739546508E-1,2.979001999E-1,-9.961047769E-2,3.590640568E-1
6.301359583E0,2.053056508E-1,2.784905434E-1,-9.853642434E-2,3.597454933E-1
6.311299583E0,2.129756063E-1,2.432524264E-1,-7.632215321E-2,3.321978671E-1
6.321240583E0,1.946341544E-1,2.017707676E-1,-5.384720117E-2,2.854705200E-1
6.331180583E0,1.639266461E-1,1.519792825E-1,-3.801081702E-2,2.267475906E-1
6.341120583E0,1.404356956E-1,1.098275632E-1,-2.232932672E-2,1.796743640E-1
6.351061583E0,1.186544672E-1,7.335155457E-2,-5.582785700E-3,1.396083831E-1
6.361001583E0,8.908698708E-2,4.943796992E-2,8.171642199E-3,1.022124252E-1
6.370941583E0,4.822768643E-2,4.694550484E-2,2.605599351E-2,7.217135832E-2
6.380882583E0,-1.880754600E-3,6.467816234E-2,4.077342153E-2,7.648054540E-2
6.390822583E0,-6.306275725E-2,1.019321829E-1,6.907784939E-2,1.383431622E-1
6.400762583E0,-1.208805144E-1,1.377226710E-1,8.494895697E-2,2.019800935E-1
6.410703583E0,-1.675790548E-1,1.697298735E-1,9.912389517E-2,2.582954049E-1
6.420643583E0,-1.952666044E-1,1.758484840E-1,1.094284654E-1,2.846512343E-1
6.430583583E0,-2.114066631E-1,1.587478071E-1,1.105420366E-1,2.865539832E-1
6.440523583E0,-2.271424830E-1,1.215551645E-1,1.082919315E-1,2.794575245E-1
6.450464583E0,-2.499652207E-1,7.916511595E-2,9.001753479E-2,2.772235266E-1
6.460404583E0,-2.672049403E-1,3.306313604E-2,5.741911009E-2,2.752973035E-1
6.470344583E0,-2.648576200E-1,3.016336123E-3,4.118450731E-2,2.680574953E-1
6.480285583E0,-2.442327738E-1,-1.759333536E-2,2.983304858E-2,2.466762737E-1
6.490225583E0,-2.058029771E-1,-9.226942435E-3,1.554060914E-2,2.065950444E-1
6.500165583E0,-1.639250368E-1,2.104787156E-2,-9.242234752E-3,1.655289989E-1
6.510106583E0,-1.150744036E-1,6.032097712E-2,-4.363669083E-2,1.370580148E-1
6.520046583E0,-6.351587176E-2,1.036202461E-1,-7.566627115E-2,1.431670561E-1
6.529986583E0,-1.682110690E-2,1.464625001E-1,-8.890984952E-2,1.721603175E-1
6.539927583E0,3.208944574E-2,1.810708046E-1,-9.007045627E-2,2.047658563E-1
6.549867583E0,7.459904999E-2,1.988023818E-1,-8.550147712E-2,2.289058930E-1
6.559807583E0,9.565080702E-2,1.934262514E-1,-8.000951260E-2,2.301397700E-1
6.569747583E0,9.648419917E-2,1.747120619E-1,-6.274090707E-2,2.092126351E-1
6.579688583E0,9.289718419E-2,1.384464651E-1,-4.587483779E-2,1.729214020E-1
6.589628583E0,8.412867785E-2,9.249188751E-2,-3.330450505E-2,1.293892335E-1
6.599568583E0,7.821805775E-2,4.304630309E-2,-1.932690665E-2,9.134866222E-2
6.609509583E0,6.053321064E-2,-3.412079299E-3,-1.017330308E-2,6.147688973E-2
6.619449583E0,4.091183841E-2,-3.715219721E-2,-7.266462781E-3,5.573926588E-2
6.629389583E0,8.548699319E-3,-4.551759362E-2,-8.007007651E-3,4.700046554E-2
6.639330583E0,-1.798011363E-2,-3.134078905E-2,-1.488355547E-2,3.907748415E-2
6.649270583E0,-4.163509235E-2,-6.088151596E-3,-2.315336280E-2,4.802733298E-2
6.659210583E0,-4.563409463E-2,4.519485403E-3,-3.642495722E-2,5.856341733E-2
6.669151583E0,-3.907557949E-2,1.185709727E-3,-4.322539642E-2,5.828157270E-2
6.679091583E0,-3.805585578E-2,-1.279402152E-2,-4.398679361E-2,5.955479122E-2
6.689031583E0,-4.616491497E-2,-2.178911492E-2,-3.982933238E-2,6.474828662E-2
6.698971583E0,-5.853316933E-2,-3.559334204E-2,-2.784164622E-2,7.394711065E-2
6.708912583E0,-6.820786744E-2,-4.620335624E-2,-1.483721659E-2,8.370905748E-2
6.718852583E0,-8.242701739E-2,-6.611021608E-2,-6.532681175E-3,1.058652435E-1
6.728792583E0,-9.283228964E-2,-8.275420219E-2,-2.765054582E-3,1.243934785E-1
6.738733583E0,-9.678601474E-2,-9.543190897E-2,-6.479631178E-3,1.360763297E-1
6.748673583E0,-8.601056784E-2,-1.055761352E-1,-7.864528336E-3,1.364037716E-1
6.758613583E0,-6.628160179E-2,-1.103591695E-1,-1.007814799E-2,1.291277124E-1
6.768554583E0,-4.393577948E-2,-1.052890271E-1,-2.052418515E-2,1.159196882E-1
6.778494583E0,-3.051930480E-2,-8.923789114E-2,-2.941141836E-2,9.879200732E-2
6.788434583E0,-2.903530374E-2,-5.858719349E-2,-3.507742658E-2,7.420198084E-2
6.798374583E0,-3.492941335E-2,-1.630977914E-2,-3.818826377E-2,5.426247601E-2
6.808315583E0,-3.893024102E-2,1.183372922E-2,-3.579546884E-2,5.419332433E-2
6.818255583E0,-4.417427257E-2,3.055734932E-2,-2.617293596E-2,5.975065298E-2
6.828195583E0,-4.958567396E-2,2.937318012E-2,-1.787061058E-2,6.033971739E-2
6.838136583E0,-5.281555653E-2,2.100818977E-2,-1.203109697E-2,5.809969314E-2
6.848076583E0,-4.638526216E-2,1.035453193E-2,-7.657920010E-3,4.813992746E-2
6.858016583E0,-3.588548675E-2,6.105458830E-3,-1.075357851E-2,3.795634647E-2
6.867957583E0,-2.957224846E-2,8.440871607E-4,-1.311878487E-2,3.236252275E-2
6.877897583E0,-2.165094391E-2,-7.533684839E-3,-1.969173364E-2,3.022059154E-2
6.887837583E0,-1.593622565E-2,-2.159479260E-2,-2.169738710E-2,3.451195391E-2
6.897778583E0,-9.546503425E-3,-3.027190268E-2,-1.681288332E-2,3.591931047E-2
6.907718583E0,1.190691069E-2,-3.259654716E-2,-1.181061380E-2,3.665787783E-2
6.917658583E0,3.530491143E-2,-3.567542508E-2,-5.391862709E-3,5.048014372E-2
6.927598583E0,5.976131931E-2,-3.591341525E-2,-1.192031894E-3,6.973241442E-2
6.937539583E0,7.159508020E-2,-3.017936461E-2,1.686046482E-3,7.771417058E-2
6.947479583E0,6.947571784E-2,-2.312998474E-2,3.499552840E-3,7.330837901E-2
6.957419583E0,5.762651563E-2,-2.078959905E-2,8.552634157E-3,6.185604484E-2
6.967360583E0,4.223843291E-2,-2.806832641E-2,1.691453345E-2,5.346043027E-2
6.977300583E0,3.550755978E-2,-3.828234971E-2,1.946717314E-2,5.572518219E-2
6.987240583E0,2.999117598E-2,-4.103680328E-2,2.387896553E-2,5.615776753E-2
6.997181583E0,2.486618981E-2,-4.691253603E-2,1.862694696E-2,5.626790013E-2
7.007121583E0,1.422728691E-2,-4.553952813E-2,8.939991705E-3,4.854057856E-2
7.017061583E0,5.821285769E-3,-4.756965488E-2,-1.026432961E-2,4.901138537E-2
7.027002583E0,4.397308920E-3,-4.674401134E-2,-2.623160556E-2,5.378137273E-2
7.036942583E0,2.172115055E-4,-3.683092818E-2,-2.316950262E-2,4.351310495E-2
7.046882583E0,-1.035303064E-2,-2.960017323E-2,-8.175130934E-3,3.240660835E-2
7.056822583E0,-1.262204442E-2,-3.086251020E-2,6.924991962E-3,3.405533813E-2
7.066763583E0,-1.318899728E-2,-4.798416421E-2,1.449457277E-2,5.183167279E-2
7.076703583E0,-1.749958843E-2,-6.458684057E-2,2.477836981E-2,7.135589100E-2
7.086643583E0,-2.166401222E-2,-8.629103750E-2,3.194991872E-2,9.453184587E-2
7.096584583E0,-1.606631465E-2,-1.102333888E-1,4.488196224E-2,1.200996129E-1
7.106524583E0,3.908797633E-3,-1.366582960E-1,6.095722690E-2,1.496881828E-1
7.116464583E0,2.939524874E-2,-1.687888056E-1,7.154515386E-2,1.856675809E-1
7.126405583E0,3.970674053E-2,-1.931735128E-1,7.029587030E-2,2.093660447E-1
7.136345583E0,3.388187662E-2,-1.990335286E-1,5.674969777E-2,2.097208985E-1
7.146285583E0,3.179519996E-2,-1.868251711E-1,3.188442811E-2,1.921749101E-1
7.156226583E0,3.859238699E-2,-1.487821788E-1,7.257379591E-3,1.538771543E-1
7.166166583E0,5.482232943E-2,-1.039317623E-1,-1.792230271E-2,1.188634004E-1
7.176106458E0,7.341119647E-2,-6.477930397E-2,-4.167157412E-2,1.064052728E-1
7.186046458E0,7.944792509E-2,-2.953861654E-2,-5.473578721E-2,1.008985088E-1
7.195987458E0,8.079495281E-2,-1.364220772E-2,-6.036571413E-2,1.017740324E-1
7.205927458E0,7.657428831E-2,-3.523901571E-3,-5.898553133E-2,9.672296738E-2
7.215867458E0,6.396448612E-2,-2.143052639E-3,-5.665872619E-2,8.547666005E-2
7.225808458E0,4.958634079E-2,-8.542304859E-3,-4.717667401E-2,6.897401493E-2
7.235748458E0,3.165527806E-2,-1.578264125E-2,-3.966176510E-2,5.314324044E-2
7.245688458E0,1.476304326E-2,-2.510753088E-2,-2.944537252E-2,4.141697135E-2
7.255629458E0,-9.520724416E-3,-3.567441925E-2,-2.310252376E-2,4.355496512E-2
7.265569458E0,-4.025179148E-2,-4.394249991E-2,-2.026444674E-2,6.294281386E-2
7.275509458E0,-7.097135484E-2,-5.983171985E-2,-1.451681182E-2,9.395480687E-2
7.285450458E0,-8.349554241E-2,-7.405639440E-2,-1.581728645E-2,1.127210792E-1
7.295390458E0,-9.500572085E-2,-9.719367325E-2,-2.172577567E-2,1.376397706E-1
7.305330458E0,-1.052978709E-1,-1.184889451E-1,-1.886167936E-2,1.596340649E-1
7.315270458E0,-1.081530452E-1,-1.410211474E-1,-2.203483507E-2,1.790798122E-1
7.325211458E0,-1.210040525E-1,-1.544705480E-1,-2.779069915E-2,1.981803570E-1
7.335151458E0,-1.202581003E-1,-1.643655151E-1,-4.447567090E-2,2.084613119E-1
7.345091458E0,-1.181589141E-1,-1.576286852E-1,-6.895584613E-2,2.087180877E-1
7.355032458E0,-1.019972563E-1,-1.317238510E-1,-9.230644256E-2,1.904602125E-1
7.364972458E0,-7.097356021E-2,-9.520605206E-2,-1.072795317E-1,1.600322983E-1
7.374912458E0,-2.465266362E-2,-6.506519020E-2,-1.212163866E-1,1.397663950E-1
7.384853458E0,1.919422485E-2,-4.332257435E-2,-1.249071062E-1,1.335928474E-1
7.394793458E0,3.418808803E-2,-2.501068078E-2,-1.208772063E-1,1.280845757E-1
7.404733458E0,3.376207128E-2,-1.354166865E-2,-1.204419136E-1,1.258153758E-1
7.414673458E0,2.859313972E-2,-2.570459247E-2,-1.099053845E-1,1.164366233E-1
7.424614458E0,2.297523990E-2,-6.104525179E-2,-8.513457328E-2,1.072486829E-1
7.434554458E0,-3.266219283E-4,-1.171878874E-1,-5.606883764E-2,1.299108240E-1
7.444494458E0,-2.968910895E-2,-1.817608029E-1,-4.545390233E-2,1.896957825E-1
7.454435458E0,-5.647864565E-2,-2.339257300E-1,-4.399795085E-2,2.446362693E-1
7.464375458E0,-7.123327255E-2,-2.685113549E-1,-4.706244916E-2,2.817576990E-1
7.474315458E0,-7.688183337E-2,-2.751072049E-1,-5.654303730E-2,2.911904970E-1
7.484256458E0,-7.796225697E-2,-2.557294965E-1,-8.098169416E-2,2.793451694E-1
7.494196458E0,-7.005853206E-2,-2.077443898E-1,-1.145897284E-1,2.473797390E-1
7.504136458E0,-6.078098342E-2,-1.336704940E-1,-1.432065666E-1,2.051103352E-1
7.514077458E0,-4.896160588E-2,-5.089278892E-2,-1.603895426E-1,1.752487380E-1
7.524017458E0,-4.886811227E-2,2.879326232E-2,-1.728258580E-1,1.818953588E-1
7.533957458E0,-4.463821650E-2,9.642317146E-2,-1.802526116E-1,2.092391033E-1
7.543897458E0,-3.148949519E-2,1.456148326E-1,-1.875973195E-1,2.395579723E-1
7.553838458E0,-9.975414723E-3,1.661712378E-1,-1.935814470E-1,2.553158158E-1
7.563778458E0,1.851002313E-2,1.584366113E-1,-1.802864075E-1,2.407238448E-1
7.573718458E0,3.685680404E-2,1.162564158E-1,-1.577922851E-1,1.994301468E-1
7.583659458E0,3.444341570E-2,5.139643699E-2,-1.206635162E-1,1.356009837E-1
7.593599458E0,2.248448692E-2,-2.253983915E-2,-8.075205237E-2,8.680144274E-2
7.603539458E0,8.023099042E-3,-8.690518886E-2,-3.750833496E-2,9.499345851E-2
7.613480458E0,-1.359377895E-2,-1.374384016E-1,-1.135183033E-2,1.385747780E-1
7.623420458E0,-5.090257153E-2,-1.746470481E-1,1.062729023E-2,1.822240448E-1
7.633360458E0,-9.224628657E-2,-1.913213581E-1,2.854104340E-2,2.143077941E-1
7.643300458E0,-1.399423778E-1,-1.896011382E-1,4.025567695E-2,2.390668949E-1
7.653241458E0,-1.612391472E-1,-1.763244867E-1,3.533362225E-2,2.415302301E-1
7.663181458E0,-1.776885688E-1,-1.601640880E-1,1.509221364E-2,2.396946756E-1
7.673121458E0,-1.879135072E-1,-1.356680542E-1,-1.252077240E-2,2.321078992E-1
7.683062458E0,-1.833177805E-1,-1.057288498E-1,-4.789074883E-2,2.169735517E-1
7.693002458E0,-1.650503576E-1,-6.507357210E-2,-7.359424978E-2,1.920736940E-1
7.702942458E0,-1.414266825E-1,-1.860981248E-2,-8.452975005E-2,1.658104649E-1
7.712883458E0,-1.094565019E-1,1.984117366E-2,-8.631672710E-2,1.408011909E-1
7.722823458E0,-6.955492496E-2,5.205522478E-2,-7.971243560E-2,1.179054978E-1
7.732763458E0,-1.994662546E-2,6.457740813E-2,-6.308285892E-2,9.245299670E-2
7.742704458E0,2.075620182E-2,5.716442689E-2,-2.824865654E-2,6.705652998E-2
7.752644458E0,5.752779916E-2,1.315915398E-2,-1.932630315E-3,5.904528829E-2
7.762584458E0,9.024699032E-2,-3.799578175E-2,2.795557305E-2,1.018317866E-1
7.772524458E0,1.012754068E-1,-8.092540503E-2,5.336266384E-2,1.401898823E-1
7.782465458E0,1.056561694E-1,-1.091188863E-1,7.077915221E-2,1.675704206E-1
7.792405458E0,9.969761223E-2,-1.196354404E-1,7.542876154E-2,1.730368474E-1
7.802345458E0,9.207458049E-2,-1.095750853E-1,7.661519945E-2,1.623401259E-1
7.812286458E0,8.417883515E-2,-8.801706135E-2,6.511407346E-2,1.381047499E-1
7.822226458E0,7.281901687E-2,-5.306020752E-2,4.535384476E-2,1.008710368E-1
7.832166458E0,6.077726185E-2,-1.191996131E-2,2.585631050E-2,6.711564519E-2
7.842107458E0,4.354527965E-2,3.360784054E-2,9.736197069E-3,5.586118383E-2
7.852047458E0,2.740679123E-2,6.542089581E-2,-1.275175018E-3,7.094118610E-2
7.861987458E0,1.853647828E-2,8.201700449E-2,-1.388092805E-2,8.522364822E-2
7.871928458E0,1.502643153E-2,7.620358467E-2,-1.979048178E-2,8.015262398E-2
7.881868458E0,1.323275641E-2,6.966391206E-2,-1.847402938E-2,7.327657366E-2
7.891808458E0,1.940330118E-2,5.415365472E-2,-1.894514263E-2,6.056422084E-2
7.901748458E0,3.295777738E-2,3.569398820E-2,-1.824068278E-2,5.189410749E-2
7.911689458E0,5.484976247E-2,1.717090234E-2,-1.590402424E-2,5.963450610E-2
7.921629458E0,7.594461739E-2,7.316445000E-3,-7.441911846E-3,7.665831547E-2
7.931569458E0,8.558366448E-2,-1.252009533E-3,-2.347817179E-3,8.562501620E-2
7.941510458E0,8.902648091E-2,-8.659510873E-3,6.925014313E-4,8.944932079E-2
7.951450458E0,7.917145640E-2,-1.300259400E-2,7.382628508E-3,8.057102558E-2
7.961390458E0,5.613402650E-2,-1.560877264E-2,1.892492734E-2,6.126022844E-2
7.971331458E0,2.175581269E-2,-1.372538600E-2,2.620893903E-2,3.672342702E-2
7.981271458E0,-4.448520485E-3,-1.156837307E-2,2.947501466E-2,3.197488200E-2
7.991211458E0,-1.531208679E-2,-9.661018848E-3,2.760946937E-2,3.301633059E-2
8.001151458E0,-1.238752622E-2,-1.223115344E-2,2.501187846E-2,3.047369332E-2
8.011092458E0,7.834388874E-3,-1.701072790E-2,9.508285671E-3,2.100357134E-2
8.021032458E0,3.379717097E-2,-1.846114732E-2,-1.432791259E-2,4.108955835E-2
8.030972458E0,5.818187445E-2,5.972024053E-3,-4.794925824E-2,7.563019868E-2
8.040913458E0,5.859922618E-2,6.139881909E-2,-6.324756891E-2,1.058486621E-1
8.050853458E0,2.692865022E-2,1.390818954E-1,-7.191535830E-2,1.588733602E-1
8.060793458E0,-1.746411435E-2,2.420658022E-1,-6.987244636E-2,2.525529779E-1
8.070734458E0,-5.873725563E-2,3.357813656E-1,-6.923808157E-2,3.478406282E-1
8.080674458E0,-8.290544152E-2,4.057557285E-1,-6.819106638E-2,4.197154333E-1
8.090614458E0,-9.015669674E-2,4.273486435E-1,-6.514973938E-2,4.415875696E-1
8.100555458E0,-9.934397787E-2,3.880404830E-1,-6.369711459E-2,4.055884180E-1
8.110495458E0,-1.108083576E-1,2.934964001E-1,-5.220983550E-2,3.180322247E-1
8.120435458E0,-1.306571215E-1,1.723484248E-1,-3.022336401E-2,2.183774592E-1
8.130375458E0,-1.329548955E-1,5.463350937E-2,-4.871667363E-3,1.438247466E-1
8.140316458E0,-1.281179488E-1,-4.793588072E-2,6.413822994E-3,1.369423038E-1
8.150256458E0,-1.151353046E-1,-1.319881827E-1,5.655887537E-3,1.752398579E-1
8.160196458E0,-1.028776392E-1,-2.002506852E-1,-1.766570844E-2,2.258234329E-1
8.170137458E0,-8.620465547E-2,-2.364425063E-1,-1.306749228E-2,2.520060729E-1
8.180077250E0,-6.556052715E-2,-2.441937923E-1,1.883466495E-3,2.528484494E-1
8.190017250E0,-4.986730963E-2,-2.285077721E-1,8.194092661E-3,2.340292581E-1
8.199958250E0,-3.031280264E-2,-1.917729378E-1,-4.102626815E-3,1.941972122E-1
8.209898250E0,-6.845561787E-3,-1.428844929E-1,-1.690364257E-2,1.440436502E-1
8.219838250E0,1.250722166E-2,-8.993565291E-2,-2.198087983E-2,9.342382638E-2
8.229779250E0,3.341703117E-2,-4.675542936E-2,-2.786353603E-2,6.386818290E-2
8.239719250E0,5.329889432E-2,-2.481415868E-2,-3.335103020E-2,6.759294210E-2
8.249659250E0,7.980533689E-2,-2.511855774E-2,-3.265035525E-2,8.981024127E-2
8.259599250E0,1.055113226E-1,-4.221493378E-2,-2.572879940E-2,1.165191442E-1
8.269540250E0,1.150989681E-1,-6.641907245E-2,-1.902695373E-2,1.342434007E-1
8.279480250E0,1.095735133E-1,-7.855447382E-2,-1.247315574E-2,1.353984482E-1
8.289420250E0,9.545689821E-2,-7.488090545E-2,-1.213626564E-2,1.219280868E-1
8.299361250E0,7.780749351E-2,-4.701823369E-2,-4.827192985E-3,9.103857499E-2
8.309301250E0,6.049960479E-2,-9.551285766E-3,-6.146256812E-3,6.155652453E-2
8.319241250E0,3.581257910E-2,2.316636033E-2,-5.552638322E-5,4.265236401E-2
8.329182250E0,1.211284474E-2,4.545728490E-2,8.540891111E-3,4.781247305E-2
8.339122250E0,-6.771737710E-3,4.649106413E-2,2.142648958E-2,5.163690474E-2
8.349062250E0,-1.641397923E-2,2.681722678E-2,3.397982940E-2,4.629482879E-2
8.359002250E0,-2.673483081E-2,-8.982337080E-3,4.218322039E-2,5.074305509E-2
8.368943250E0,-4.407573491E-2,-5.091034621E-2,4.509671777E-2,8.104472662E-2
8.378883250E0,-6.167452410E-2,-8.845783025E-2,4.655626416E-2,1.174564617E-1
8.388823250E0,-6.856279075E-2,-1.109455600E-1,4.513067380E-2,1.380092435E-1
8.398764250E0,-6.023610011E-2,-1.191683039E-1,4.451952875E-2,1.407531913E-1
8.408704250E0,-4.397510365E-2,-1.130475625E-1,2.698767558E-2,1.242654247E-1
8.418644250E0,-2.401551045E-2,-9.125917405E-2,7.013168186E-3,9.462645570E-2
8.428585250E0,-3.409301164E-3,-5.363217369E-2,-2.311464027E-2,5.850059815E-2
8.438525250E0,2.059101686E-2,-8.977138437E-3,-4.890149459E-2,5.381389377E-2
8.448465250E0,4.398235679E-2,4.331642762E-2,-4.566522315E-2,7.678589203E-2
8.458406250E0,5.002805218E-2,8.663862944E-2,-4.733497277E-2,1.106781720E-1
8.468346250E0,5.545717478E-2,1.065092757E-1,-4.961996526E-2,1.299302313E-1
8.478286250E0,6.142082810E-2,1.023406461E-1,-4.219326004E-2,1.265954073E-1
8.488226250E0,5.074714497E-2,8.761762828E-2,-3.067189269E-2,1.057964390E-1
8.498167250E0,1.852191798E-2,7.072770596E-2,-2.522213385E-2,7.734097149E-2
8.508107250E0,-2.608762868E-2,6.138613448E-2,-2.466952801E-2,7.111545182E-2
8.518047250E0,-5.516231433E-2,6.025653705E-2,-2.567649633E-2,8.563301725E-2
8.527988250E0,-6.190517172E-2,7.036349922E-2,-4.150685668E-2,1.024992266E-1
8.537928250E0,-4.327133670E-2,8.634398133E-2,-5.509039015E-2,1.111874219E-1
8.547868250E0,-2.788359113E-2,1.172419786E-1,-6.661788374E-2,1.376993778E-1
8.557809250E0,-3.411041945E-2,1.560332179E-1,-6.316708773E-2,1.717555437E-1
8.567749250E0,-5.006781220E-2,2.099313289E-1,-5.375521258E-2,2.224130651E-1
8.577689250E0,-6.266719103E-2,2.790175378E-1,-4.053333774E-2,2.888267902E-1
8.587630250E0,-7.342236489E-2,3.509753644E-1,-2.836748771E-2,3.596932922E-1
8.597570250E0,-9.468190372E-2,4.107922614E-1,-1.882609725E-2,4.219826618E-1
8.607510250E0,-1.254800260E-1,4.561762512E-1,-5.480731372E-3,4.731511888E-1
8.617450250E0,-1.495891511E-1,4.708662331E-1,-6.116482429E-3,4.940944596E-1
8.627391250E0,-1.544009447E-1,4.508653581E-1,-3.371508792E-2,4.777613735E-1
8.637331250E0,-1.369453669E-1,4.004835784E-1,-5.125583708E-2,4.263429265E-1
8.647271250E0,-1.106077656E-1,3.182182908E-1,-4.743606597E-2,3.402163117E-1
8.657212250E0,-8.246159554E-2,2.096827030E-1,-3.550326824E-2,2.280947889E-1
8.667152250E0,-5.768567696E-2,8.897680044E-2,-1.911656745E-2,1.077494849E-1
8.677092250E0,-3.155357018E-2,-2.849005908E-2,-5.318226293E-3,4.284384190E-2
8.687033250E0,-1.071513351E-2,-1.454020292E-1,2.739167539E-3,1.458220395E-1
8.696973250E0,-3.704557428E-3,-2.394682467E-1,1.132735610E-2,2.397646219E-1
8.706913250E0,-1.101919543E-2,-2.804380655E-1,1.622890308E-2,2.811232978E-1
8.716854250E0,-2.403759584E-2,-2.874183059E-1,7.034846582E-3,2.885075001E-1
8.726794250E0,-4.533462971E-2,-2.586721480E-1,-4.547507502E-3,2.626541236E-1
8.736734250E0,-6.655686349E-2,-2.057045996E-1,-1.856753044E-2,2.169998884E-1
8.746674250E0,-7.827983052E-2,-1.484367698E-1,-3.750367090E-2,1.719527023E-1
8.756615250E0,-6.933961064E-2,-9.286008030E-2,-6.173241511E-2,1.313082906E-1
8.766555250E0,-4.495811090E-2,-5.147189274E-2,-8.447261900E-2,1.086563889E-1
8.776495250E0,-1.498400327E-2,-1.781722531E-2,-9.815495461E-2,1.008779906E-1
8.786436250E0,8.436101489E-3,6.000489462E-3,-1.036708951E-1,1.041865067E-1
8.796376250E0,1.687189564E-2,1.657928713E-2,-9.754330665E-2,1.003704653E-1
8.806316250E0,1.938884892E-2,1.644879207E-2,-9.083107859E-2,9.432271763E-2
8.816257250E0,1.013029832E-2,6.061388412E-4,-7.848375291E-2,7.913715827E-2
8.826197250E0,-4.143446684E-3,-2.190928906E-2,-6.795201451E-2,7.151686076E-2
8.836137250E0,-2.344754711E-2,-5.072591454E-2,-5.357987061E-2,7.741904421E-2
8.846077250E0,-5.081206188E-2,-6.262172014E-2,-3.502855822E-2,8.792238257E-2
8.856018250E0,-7.077099383E-2,-6.137982011E-2,-1.436833944E-2,9.477586751E-2
8.865958250E0,-8.762773871E-2,-5.530621856E-2,4.945970140E-3,1.037393899E-1
8.875898250E0,-9.827992320E-2,-4.960975796E-2,2.202759124E-2,1.122732656E-1
8.885839250E0,-1.004125774E-1,-5.156318471E-2,2.987725846E-2,1.167651416E-1
8.895779250E0,-9.211166948E-2,-5.766782910E-2,3.100827709E-2,1.130117313E-1
8.905719250E0,-6.200196967E-2,-6.444238126E-2,3.000080213E-2,9.432450834E-2
8.915660250E0,-2.388320491E-2,-7.185515016E-2,2.765953727E-2,8.061401915E-2
8.925600250E0,1.193311624E-2,-6.516955048E-2,2.309780940E-2,7.016393926E-2
8.935540250E0,4.879852757E-2,-5.477492511E-2,2.346095815E-2,7.701951228E-2
8.945480250E0,7.302957028E-2,-3.642334789E-2,1.931894384E-2,8.386417589E-2
8.955421250E0,9.877163172E-2,-1.660653204E-2,1.751459762E-2,1.016777914E-1
8.965361250E0,1.094034985E-1,-7.281739730E-3,1.774416119E-2,1.110720688E-1
8.975301250E0,1.179104149E-1,-3.705124371E-3,1.831876487E-2,1.193824570E-1
8.985242250E0,1.256168038E-1,-8.888967335E-3,1.358126942E-2,1.266611464E-1
8.995182250E0,1.148148626E-1,-1.711008511E-2,1.475662924E-2,1.170169466E-1
9.005122250E0,9.423288703E-2,-2.028696984E-2,1.977402531E-2,9.839923892E-2
9.015063250E0,6.318499148E-2,-1.850630343E-2,2.852551639E-2,7.175326822E-2
9.025003250E0,2.207457460E-2,-1.571610942E-2,3.395250440E-2,4.344025200E-2
9.034943250E0,-1.396772359E-2,-1.755862311E-2,4.149252921E-2,4.717025046E-2
9.044884250E0,-3.658408672E-2,-3.063474223E-2,5.078669265E-2,6.968623237E-2
9.054824250E0,-4.315829650E-2,-5.118924752E-2,5.888179690E-2,8.916301713E-2
9.064764250E0,-3.709081560E-2,-7.190544158E-2,6.486139446E-2,1.036972595E-1
9.074704250E0,-2.443140745E-2,-9.124308825E-2,6.464757025E-2,1.144617978E-1
9.084645250E0,-1.082292013E-2,-1.097411439E-1,5.591266602E-2,1.236385073E-1
9.094585250E0,3.984981682E-3,-1.221062392E-1,5.058565363E-2,1.322298078E-1
9.104525250E0,2.891430072E-2,-1.223307475E-1,4.547185078E-2,1.336732501E-1
9.114466250E0,4.965990037E-2,-1.145262867E-1,4.602722824E-2,1.330446609E-1
9.124406250E0,6.019483134E-2,-8.676443249E-2,3.925853595E-2,1.126619595E-1
9.134346250E0,6.058876589E-2,-5.014247447E-2,3.596505895E-2,8.647977662E-2
9.144287250E0,5.430903286E-2,-1.088322047E-2,3.250454739E-2,6.422196773E-2
9.154227250E0,4.639127851E-2,2.741154656E-2,3.024445474E-2,6.179215685E-2
9.164167250E0,3.119687736E-2,4.785077646E-2,2.017957158E-2,6.058182132E-2
9.174107250E0,1.164544187E-2,5.158174783E-2,1.690603979E-2,5.551672907E-2
9.184048333E0,8.313295431E-3,3.837486356E-2,8.529866114E-3,4.018083686E-2
9.193988333E0,-1.572821173E-3,1.676340960E-2,1.654547453E-2,2.360589747E-2
9.203928333E0,-1.590808481E-2,-1.122747920E-2,2.311495878E-2,3.022291797E-2
9.213869333E0,-3.876553476E-2,-3.686955571E-2,3.446905315E-2,6.364154656E-2
9.223809333E0,-5.371864885E-2,-7.243447751E-2,3.495215252E-2,9.671659492E-2
9.233749333E0,-5.760974437E-2,-9.787210077E-2,3.490786254E-2,1.188124136E-1
9.243690333E0,-4.204303399E-2,-1.187592745E-1,3.080872446E-2,1.296940997E-1
9.253630333E0,-5.206242204E-3,-1.250896901E-1,2.703457326E-2,1.280835808E-1
9.263570333E0,3.570364043E-2,-1.171340346E-1,2.440257184E-2,1.248623943E-1
9.273510333E0,6.245841458E-2,-9.598147869E-2,2.614861913E-2,1.174616877E-1
9.283451333E0,7.025801390E-2,-6.488002092E-2,2.695529163E-2,9.935891192E-2
9.293391333E0,6.928934902E-2,-2.503949776E-2,2.956969105E-2,7.938738542E-2
9.303331333E0,7.026300579E-2,1.401309483E-2,3.746250272E-2,8.084983562E-2
9.313272333E0,5.797997117E-2,4.048124328E-2,3.818861023E-2,8.036652329E-2
9.323212333E0,4.085291550E-2,4.789867997E-2,2.978873439E-2,6.964634193E-2
9.333152333E0,2.221691236E-2,4.603286833E-2,1.954435371E-2,5.472291954E-2
9.343093333E0,6.296535488E-3,4.016885534E-2,1.709424518E-2,4.410664935E-2
9.353033333E0,-6.859390531E-3,2.905660123E-2,1.734005660E-2,3.452556844E-2
9.362973333E0,-1.669710875E-2,1.796267182E-2,1.504893787E-2,2.877362595E-2
9.372914333E0,-1.975354739E-2,1.083082333E-2,1.506440900E-2,2.710066027E-2
9.382854333E0,-2.473818511E-2,1.278052386E-2,1.512086950E-2,3.168533236E-2
9.392794333E0,-1.996821724E-2,2.340039983E-2,6.997322198E-3,3.154791483E-2
9.402734333E0,-4.176203627E-3,3.632019460E-2,2.610829426E-3,3.665260759E-2
9.412675333E0,1.101500075E-2,4.912440851E-2,-7.689478807E-3,5.092804569E-2
9.422615333E0,2.210573293E-2,6.182875112E-2,-1.368505321E-2,6.707263656E-2
9.432555333E0,3.369849175E-2,7.653339952E-2,-1.504955068E-2,8.496727938E-2
9.442496333E0,4.258945584E-2,8.177902550E-2,-1.866825484E-2,9.407536606E-2
9.452436333E0,4.572406784E-2,7.993084192E-2,-1.388505567E-2,9.312585377E-2
9.462376333E0,4.942373186E-2,7.387427986E-2,-1.414870936E-2,9.000166928E-2
9.472317333E0,5.158188567E-2,6.809144467E-2,-8.290980011E-3,8.582468244E-2
9.482257333E0,5.441229418E-2,7.409501076E-2,-9.676888585E-3,9.243598082E-2
9.492197333E0,5.037226155E-2,8.458386362E-2,-1.140884962E-2,9.910578473E-2
9.502137333E0,3.348968551E-2,1.016315594E-1,-2.138105594E-2,1.091223280E-1
9.512078333E0,2.208158933E-2,1.230983436E-1,-2.787024900E-2,1.281309860E-1
9.522018333E0,1.176838763E-3,1.454486400E-1,-3.860358521E-2,1.504889651E-1
9.531958333E0,-1.812969148E-2,1.621200144E-1,-4.388018325E-2,1.689291428E-1
9.541899333E0,-3.149610013E-2,1.667390019E-1,-4.735134915E-2,1.761705121E-1
9.551839333E0,-3.653991595E-2,1.652140915E-1,-4.431366920E-2,1.749130149E-1
9.561779333E0,-3.204290196E-2,1.582954675E-1,-4.373469576E-2,1.673228203E-1
9.571720333E0,-2.439618111E-2,1.517331153E-1,-3.646663949E-2,1.579491302E-1
9.581660333E0,-2.776508033E-2,1.331471801E-1,-3.455235809E-2,1.403315243E-1
9.591600333E0,-3.968705982E-2,1.139031351E-1,-2.858064510E-2,1.239590262E-1
9.601540333E0,-5.142387375E-2,9.742935747E-2,-2.584398165E-2,1.131583222E-1
9.611481333E0,-5.436296016E-2,8.049590141E-2,-2.051483653E-2,9.927628165E-2
9.621421333E0,-5.066196620E-2,6.641523540E-2,-1.923305541E-2,8.571772707E-2
9.631361333E0,-5.120132491E-2,5.223726854E-2,-1.246119756E-2,7.419965863E-2
9.641302333E0,-4.724892601E-2,3.651556373E-2,-1.063400228E-2,6.065417882E-2
9.651242333E0,-4.241841659E-2,2.399986796E-2,-1.299380418E-2,5.043961415E-2
9.661182333E0,-2.460825816E-2,2.502811514E-2,-1.677282900E-2,3.890116591E-2
9.671122333E0,1.913060434E-3,3.049343266E-2,-1.426967047E-2,3.372139871E-2
9.681063333E0,1.315026917E-2,3.617182374E-2,-9.880781174E-3,3.973613278E-2
9.691003333E0,1.339707337E-2,4.617588967E-2,-5.649310537E-3,4.841083630E-2
9.700943333E0,6.251546089E-3,5.906079710E-2,-5.406963639E-3,5.963635500E-2
9.710884333E0,2.294124570E-3,7.226184011E-2,5.257076118E-4,7.230015845E-2
9.720824333E0,9.120871313E-3,7.835675031E-2,2.872218844E-3,7.893807860E-2
9.730764333E0,7.929551415E-3,8.189412206E-2,1.044052374E-2,8.293690102E-2
9.740705333E0,7.753517013E-3,7.901950181E-2,1.225573476E-2,8.033929130E-2
9.750645333E0,-3.180638305E-4,7.389473915E-2,1.407158375E-2,7.522328834E-2
9.760585333E0,-7.276637480E-3,6.380295753E-2,2.018620074E-2,6.731455670E-2
9.770526333E0,-4.752405453E-3,4.542353004E-2,1.416466013E-2,4.781757036E-2
9.780466333E0,6.320219487E-3,2.888370119E-2,1.540649217E-2,3.334026649E-2
9.790406333E0,1.199880708E-2,1.266868133E-2,2.335094288E-2,2.915018682E-2
9.800346333E0,1.176152006E-2,6.125826854E-3,3.234203905E-2,3.495520846E-2
9.810287333E0,1.277493284E-4,6.538873073E-3,3.813351318E-2,3.869028313E-2
9.820227333E0,-7.610065397E-3,1.062176563E-2,4.315330461E-2,4.508816584E-2
9.830167333E0,-1.105623227E-2,1.242497098E-2,4.962856323E-2,5.234132654E-2
9.840108333E0,-1.130017731E-2,6.955903489E-3,5.196681991E-2,5.363421457E-2
9.850048333E0,4.624248482E-3,8.367941715E-3,4.849357903E-2,4.942705059E-2
9.859988333E0,1.798559353E-2,2.922310261E-3,4.891462624E-2,5.219829626E-2
9.869929333E0,2.797850221E-2,-2.658175305E-3,4.909756035E-2,5.657236882E-2
9.879869333E0,3.756268695E-2,-1.129520941E-3,4.534995928E-2,5.889694453E-2
9.889809333E0,4.573507607E-2,1.444660476E-3,4.056819901E-2,6.115196643E-2
9.899749333E0,6.921723485E-2,5.522351712E-4,3.633164242E-2,7.817492440E-2
9.909690333E0,8.999237418E-2,-4.976113327E-3,3.670755029E-2,9.731820674E-2
9.919630333E0,1.089210510E-1,-5.063731223E-3,3.909746557E-2,1.158363006E-1
9.929570333E0,1.138042808E-1,3.508215770E-3,5.053206906E-2,1.245681015E-1
9.939511333E0,9.658667445E-2,1.698381081E-2,5.954820290E-2,1.147319658E-1
9.949451333E0,7.823080570E-2,2.800016478E-2,6.812883168E-2,1.074504811E-1
9.959391333E0,5.702778324E-2,2.826222032E-2,6.697595119E-2,9.239425955E-2
9.969332333E0,4.581471905E-2,1.497619133E-2,6.574556231E-2,8.152149258E-2
9.979272333E0,3.092925064E-2,-9.120622650E-3,6.966760010E-2,7.676834508E-2
9.989212333E0,2.148990519E-2,-3.213594481E-2,6.896724552E-2,7.906336654E-2
9.999152333E0,1.627676748E-2,-4.925234616E-2,7.087566704E-2,8.782987498E-2
1.000909333E1,1.215302106E-2,-6.203025952E-2,7.220979780E-2,9.596720229E-2
1.001903333E1,1.403108239E-2,-7.204160839E-2,7.250168175E-2,1.031666539E-1
1.002897333E1,1.418728661E-2,-6.776875257E-2,7.308230549E-2,1.006722718E-1
1.003891433E1,1.393854804E-2,-6.199635193E-2,7.438778877E-2,9.783339865E-2
1.004885433E1,1.768453419E-2,-4.902229831E-2,7.407649606E-2,9.057182647E-2
1.005879433E1,2.116049267E-2,-3.888151422E-2,6.929372251E-2,8.222626452E-2
1.006873533E1,2.935402468E-2,-2.921015769E-2,6.663633883E-2,7.845568004E-2
1.007867533E1,4.763209820E-2,-2.066780254E-2,5.834858119E-2,7.810590098E-2
1.008861533E1,5.671149120E-2,-5.925945006E-3,5.681891367E-2,8.049657762E-2
1.009855533E1,6.578434259E-2,1.810056157E-2,5.375840887E-2,8.686297591E-2
1.010849633E1,6.321443617E-2,4.794955626E-2,5.043845996E-2,9.401735547E-2
1.011843633E1,5.897467583E-2,7.562166452E-2,4.257680848E-2,1.049258460E-1
1.012837633E1,6.021867692E-2,9.373570979E-2,3.867895156E-2,1.179352943E-1
1.013831733E1,6.153294817E-2,9.074178338E-2,3.610793501E-2,1.154303163E-1
1.014825733E1,5.906201527E-2,7.305750251E-2,4.028492048E-2,1.022183699E-1
1.015819733E1,5.859196559E-2,4.444876313E-2,4.733058065E-2,8.745796042E-2
1.016813833E1,5.826705694E-2,1.239501499E-2,5.831092224E-2,8.335976231E-2
1.017807888E1,5.090181902E-2,-1.679109968E-2,6.704156101E-2,8.583418381E-2
1.018801888E1,4.307692125E-2,-2.382557280E-2,7.767849416E-2,9.196318567E-2
1.019795887E1,2.856509015E-2,-2.160769328E-2,7.980369776E-2,8.747277840E-2
1.020789988E1,1.980959438E-2,-1.108458545E-2,8.156365156E-2,8.466355367E-2
1.021783987E1,1.690408401E-2,-8.839007467E-3,6.985373050E-2,7.241146162E-2
1.022777988E1,1.571324281E-2,-1.681265049E-2,6.333705783E-2,6.738808582E-2
1.023772087E1,2.740451880E-2,-3.068159334E-2,5.711990222E-2,7.039212350E-2
1.024766088E1,4.314126447E-2,-4.281190038E-2,5.149032921E-2,7.965727535E-2
1.025760088E1,5.604907125E-2,-4.943278432E-2,4.836111516E-2,8.901626825E-2
1.026754188E1,6.334546208E-2,-4.321311042E-2,4.994684085E-2,9.151342737E-2
1.027748188E1,6.219390780E-2,-2.529722452E-2,5.364357308E-2,8.593988985E-2
1.028742188E1,5.791646242E-2,3.147593467E-3,6.238148361E-2,8.518024103E-2
1.029736187E1,5.677369982E-2,2.577327564E-2,5.742161721E-2,8.476294504E-2
1.030730288E1,5.007173121E-2,3.562604636E-2,5.444145575E-2,8.209912027E-2
1.031724287E1,4.423461482E-2,3.029333241E-2,5.771554634E-2,7.877481467E-2
1.032718288E1,2.545167506E-2,1.292695664E-2,5.762209743E-2,6.430552141E-2
1.033712387E1,1.180111151E-2,-8.844917640E-3,6.099339202E-2,6.275103721E-2
1.034706388E1,1.055945735E-2,-3.144727275E-2,6.372406334E-2,7.184141808E-2
1.035700388E1,1.026144996E-2,-4.223307595E-2,5.965555459E-2,7.380863942E-2
1.036694488E1,3.496808233E-3,-4.440298676E-2,5.361821875E-2,6.970485122E-2
1.037688488E1,-2.117401687E-3,-4.433987290E-2,4.530382901E-2,6.342668714E-2
1.038682488E1,-4.983851686E-3,-4.037261009E-2,3.437981009E-2,5.326122197E-2
1.039676588E1,-3.957578738E-4,-2.825096808E-2,2.311437204E-2,3.650408220E-2
1.040670588E1,1.205588784E-2,-1.366960816E-2,1.196339820E-2,2.180196127E-2
1.041664587E1,2.797280252E-2,1.436655410E-2,1.220472972E-3,3.147006692E-2
1.042658588E1,4.201623797E-2,4.868168011E-2,-6.603840739E-3,6.464426459E-2
1.043652687E1,5.253279582E-2,7.904065400E-2,-1.336241048E-2,9.584192003E-2
1.044646688E1,6.046908349E-2,1.036582068E-1,-8.070950396E-3,1.202774880E-1
1.045640688E1,6.378445774E-2,1.241267323E-1,1.280050911E-2,1.401419130E-1
1.046634788E1,5.466413870E-2,1.311680377E-1,8.564832620E-3,1.423607338E-1
1.047628788E1,4.336860776E-2,1.223625764E-1,-7.136632688E-3,1.300167980E-1
1.048622788E1,2.576309070E-2,1.163085252E-1,-1.858090982E-4,1.191278490E-1
1.049616888E1,1.147576235E-2,1.077712253E-1,1.562165003E-2,1.095005300E-1
1.050610888E1,-8.502029814E-3,9.322126210E-2,2.596776374E-2,9.714326004E-2
1.051604887E1,-3.211867437E-2,8.102452010E-2,2.717444114E-2,9.129639835E-2
1.052598888E1,-3.720238432E-2,6.385219097E-2,2.997342311E-2,7.974663494E-2
1.053592987E1,-2.950211987E-2,4.559808224E-2,3.197478876E-2,6.302338691E-2
1.054586988E1,-1.987152547E-2,2.412905172E-2,3.410068527E-2,4.625954385E-2
1.055580988E1,-1.456011645E-2,7.156193722E-3,3.171262890E-2,3.562160765E-2
1.056575088E1,-5.448057316E-3,-1.872424618E-3,2.779384144E-2,2.838458956E-2
1.057569088E1,-7.353273686E-4,-2.134479582E-3,2.486276627E-2,2.496505269E-2
1.058563088E1,-2.209246624E-3,1.133838110E-2,1.448314730E-2,1.852569060E-2
1.059557188E1,-9.986208752E-3,3.481547907E-2,3.233422758E-3,3.636340153E-2
1.060551188E1,-1.495362539E-2,5.541598424E-2,-1.258082688E-2,5.876069628E-2
1.061545187E1,-1.195330825E-2,7.289590687E-2,-3.018299118E-2,7.979791834E-2
1.062539188E1,-2.165711019E-3,8.840154111E-2,-4.457090423E-2,9.902569504E-2
1.063533287E1,1.042385027E-2,9.112941474E-2,-5.143866315E-2,1.051625549E-1
1.064527288E1,1.880891994E-2,8.416217566E-2,-4.886367917E-2,9.911965709E-2
1.065521288E1,2.045049146E-2,6.417781860E-2,-4.392484948E-2,8.041397517E-2
1.066515388E1,8.522262797E-3,3.236432374E-2,-3.179492429E-2,4.616270816E-2
1.067509388E1,-9.259663522E-3,-1.922010211E-3,-1.790493727E-2,2.024900665E-2
1.068503388E1,-2.508966997E-2,-2.881796472E-2,-6.832180545E-3,3.881552938E-2
1.069497488E1,-3.852079064E-2,-4.278171808E-2,5.577617325E-3,5.783801974E-2
1.070491488E1,-5.385507643E-2,-5.181871727E-2,5.207944196E-3,7.491776425E-2
1.071485487E1,-6.044773012E-2,-5.729897320E-2,7.462043781E-3,8.362285874E-2
1.072479488E1,-6.044277549E-2,-5.503300577E-2,5.078541115E-3,8.190086943E-2
1.073473587E1,-5.479288101E-2,-4.863183200E-2,-2.123608720E-4,7.326226853E-2
1.074467588E1,-3.872863948E-2,-3.979990259E-2,-1.056734473E-2,5.652971375E-2
1.075461588E1,-2.589034103E-2,-2.951344475E-2,-1.617436297E-2,4.246131413E-2
1.076455688E1,-1.304234471E-2,-2.339855768E-2,-2.235345356E-2,3.488942738E-2
1.077449688E1,-8.074483834E-3,-1.670603268E-2,-2.460302413E-2,3.081554175E-2
1.078443688E1,-4.640728701E-3,-1.546160877E-2,-2.639554814E-2,3.094063138E-2
1.079437788E1,-7.013810100E-4,-1.303014252E-2,-2.851675637E-2,3.136051568E-2
1.080431787E1,-1.285529579E-4,-1.816366054E-2,-2.538818121E-2,3.121689983E-2
1.081425787E1,2.994170063E-4,-2.281753533E-2,-2.972300909E-2,3.747248108E-2
1.082419788E1,6.226477679E-3,-2.167993225E-2,-3.240244091E-2,3.948045926E-2
1.083413887E1,1.470891293E-2,-2.525975369E-2,-3.505335003E-2,4.564147921E-2
1.084407888E1,1.415593270E-2,-2.669339254E-2,-3.309203684E-2,4.481083060E-2
1.085401888E1,1.401451882E-2,-2.763322368E-2,-3.564973921E-2,4.723246441E-2
1.086395988E1,1.332307234E-2,-2.114208415E-2,-3.562150896E-2,4.351303114E-2
1.087389988E1,1.085325610E-2,-1.229532994E-2,-3.520552441E-2,3.883809027E-2
1.088383987E1,7.861007471E-4,-4.098314792E-3,-3.629241511E-2,3.653154162E-2
1.089378088E1,-1.631325670E-2,5.093052983E-3,-3.160072118E-2,3.592585576E-2
1.090372087E1,-2.950171009E-2,2.178530023E-2,-2.471972816E-2,4.422686021E-2
1.091366087E1,-4.271285608E-2,3.793870658E-2,-1.663224027E-2,5.950096594E-2
1.092360088E1,-5.500252545E-2,5.215173960E-2,-3.368526930E-3,7.587113234E-2
1.093354187E1,-5.735303089E-2,4.739586636E-2,7.175993174E-3,7.474779715E-2
1.094348188E1,-5.904534459E-2,3.757872432E-2,1.389722712E-2,7.135577175E-2
1.095342188E1,-5.277439952E-2,2.263519727E-2,1.329774968E-2,5.894335880E-2
1.096336288E1,-4.349736869E-2,6.318167318E-3,1.209067367E-2,4.558645316E-2
1.097330288E1,-3.667568043E-2,-2.915810794E-3,7.498051506E-3,3.754767987E-2
1.098324287E1,-2.882869542E-2,-8.957143873E-3,6.488738116E-3,3.087762666E-2
1.099318388E1,-2.775224485E-2,-2.885936294E-3,2.063363325E-3,2.797808411E-2
1.100312387E1,-1.800044067E-2,2.488649916E-3,1.062122639E-3,1.820267418E-2
1.101306387E1,1.617735485E-3,1.200226042E-2,-4.921467509E-3,1.307257304E-2
1.102300388E1,2.322371118E-2,1.863120124E-2,-8.133800700E-3,3.086456114E-2
1.103294487E1,4.889365286E-2,2.771071717E-2,-1.218233816E-2,5.750549973E-2
1.104288488E1,7.260590792E-2,4.048670083E-2,-1.334800478E-2,8.419596214E-2
1.105282488E1,8.907729387E-2,5.085678399E-2,-8.050443605E-3,1.028882229E-1
1.106276588E1,8.624344319E-2,5.750318617E-2,-2.617886290E-3,1.036889639E-1
1.107270588E1,6.466544420E-2,6.030802801E-2,5.387576297E-3,8.858726711E-2
1.108264587E1,3.682559356E-2,5.495248735E-2,1.611353457E-2,6.808484562E-2
1.109258688E1,8.371049538E-3,4.568548501E-2,2.712836862E-2,5.378834813E-2
1.110252687E1,-1.344153471E-2,3.236197680E-2,4.645967111E-2,5.819341404E-2
1.111246687E1,-2.576398104E-2,1.418270823E-2,5.909450352E-2,6.600827432E-2
1.112240688E1,-2.874752134E-2,6.321588997E-3,6.566638499E-2,7.196149379E-2
1.113234787E1,-1.573158801E-2,1.177094970E-2,6.976232678E-2,7.247634342E-2
1.114228788E1,3.402265953E-3,2.604561113E-2,6.602881849E-2,7.106162216E-2
1.115222788E1,1.435185224E-2,4.310102761E-2,5.797248706E-2,7.365109300E-2
1.116216888E1,2.331692958E-3,6.622047722E-2,5.120283738E-2,8.373959011E-2
1.117210888E1,-2.550419793E-2,9.684789181E-2,4.691861197E-2,1.105953634E-1
1.118204850E1,-4.599674419E-2,1.223295182E-1,4.592173919E-2,1.385244297E-1
1.119198950E1,-4.517942294E-2,1.310926527E-1,6.441020221E-2,1.528892998E-1
1.120192950E1,-3.711696714E-2,1.401660442E-1,1.199224591E-1,1.881637197E-1
1.121186950E1,-1.505720522E-2,1.127756909E-1,1.344148517E-1,1.761034589E-1
1.122180950E1,3.878903389E-2,5.896202475E-2,1.194689795E-1,1.387585910E-1
1.123175050E1,1.391382664E-1,-2.791881189E-2,1.200242490E-1,1.858621467E-1
1.124169050E1,2.277633995E-1,-1.250331700E-1,1.440520883E-1,2.970866269E-1
1.125163050E1,2.639810443E-1,-2.151827663E-1,1.503491253E-1,3.722827879E-1
1.126157150E1,2.310735434E-1,-2.765469849E-1,1.394790113E-1,3.864293104E-1
1.127151150E1,1.617059261E-1,-2.983955443E-1,1.325156540E-1,3.643475071E-1
1.128145150E1,7.688992471E-2,-2.790396512E-1,1.407836974E-1,3.218621396E-1
1.129139250E1,1.632884331E-2,-2.175797671E-1,1.366113275E-1,2.574300701E-1
1.130133250E1,-1.754038781E-2,-1.439320892E-1,9.571547806E-2,1.737399328E-1
1.131127250E1,-4.234693572E-2,-6.679522246E-2,3.906977177E-2,8.821174397E-2
1.132121250E1,-4.131767526E-2,-5.877896678E-3,-1.292570401E-2,4.368951571E-2
1.133115350E1,-1.628955267E-2,2.568002976E-2,-5.735255405E-2,6.491632238E-2
1.134109350E1,1.995466463E-2,2.695058286E-2,-1.012261659E-1,1.066361065E-1
1.135103350E1,5.528841913E-2,9.144688025E-3,-1.376097351E-1,1.485828853E-1
1.136097450E1,6.673122197E-2,-1.100398973E-2,-1.492871642E-1,1.638926514E-1
1.137091450E1,5.761575699E-2,-1.545599662E-2,-1.377711296E-1,1.501311008E-1
1.138085450E1,4.931975901E-2,6.079723593E-3,-9.095624834E-2,1.036457466E-1
1.139079550E1,4.705766961E-2,6.302343309E-2,-2.083148621E-2,8.136539931E-2
1.140073550E1,4.146384448E-2,1.087555811E-1,2.522360766E-3,1.164190239E-1
1.141067550E1,3.866033629E-2,1.225835159E-1,-1.260332949E-2,1.291517863E-1
1.142061550E1,3.682930768E-2,1.066462472E-1,-2.390629053E-2,1.153313950E-1
1.143055650E1,3.617310151E-2,7.271171361E-2,-1.178997196E-2,8.206393854E-2
1.144049650E1,2.628237009E-2,2.250211686E-2,9.616540745E-3,3.591080752E-2
1.145043650E1,7.513741963E-3,-3.800969571E-2,3.031090088E-2,4.919292630E-2
1.146037750E1,-7.438203320E-3,-1.007858813E-1,5.105024204E-2,1.132221177E-1
1.147031750E1,-1.129073184E-2,-1.630915999E-1,5.906023085E-2,1.738230752E-1
1.148025750E1,-2.222018503E-2,-2.059758008E-1,4.443124682E-2,2.118818133E-1
1.149019850E1,-2.704263665E-2,-2.034631073E-1,2.211342379E-2,2.064401699E-1
1.150013850E1,-4.254097492E-2,-1.559063345E-1,8.411325980E-4,1.616082522E-1
1.151007850E1,-5.913219973E-2,-7.224552333E-2,-2.573188767E-2,9.684091455E-2
1.152001950E1,-7.611187547E-2,2.424970269E-2,-4.270184413E-2,9.057876771E-2
1.152995950E1,-7.770284265E-2,1.044870168E-1,-4.192340001E-2,1.367948826E-1
1.153989950E1,-7.511796802E-2,1.517091393E-1,-3.423474729E-2,1.727147649E-1
1.154983950E1,-6.925927848E-2,1.658499837E-1,-1.640248857E-2,1.804774401E-1
1.155978050E1,-7.180540264E-2,1.575967669E-1,5.585047416E-3,1.732742034E-1
1.156972050E1,-8.141142875E-2,1.518331468E-1,5.054533109E-2,1.795437431E-1
1.157966050E1,-9.132397920E-2,1.320434064E-1,4.218526930E-2,1.659973713E-1
1.158960150E1,-7.883028686E-2,9.839490801E-2,2.399082109E-2,1.283406855E-1
1.159954150E1,-5.455005541E-2,6.742177159E-2,3.402944654E-2,9.316333539E-2
1.160948150E1,-4.157619923E-2,4.406664893E-2,4.771223664E-2,7.711619425E-2
1.161942250E1,-3.551843390E-2,1.937608793E-2,4.252165183E-2,5.869482775E-2
1.162936250E1,-2.514408715E-2,-5.307420623E-3,3.118377924E-2,4.040819125E-2
1.163930250E1,-3.932400141E-3,-1.558282413E-2,2.399982139E-2,2.888389873E-2
1.164924250E1,2.859358490E-2,-2.102153003E-2,1.509927120E-2,3.856793763E-2
1.165918350E1,4.976417124E-2,-1.184930746E-2,-2.969426569E-4,5.115629973E-2
1.166912350E1,5.535174906E-2,1.470613666E-2,-1.273230743E-2,5.867024997E-2
1.167906350E1,4.993370548E-2,5.278421938E-2,-1.792185009E-2,7.483810172E-2
1.168900450E1,4.695682600E-2,8.700051159E-2,-2.754891105E-2,1.026302832E-1
1.169894450E1,4.356300086E-2,1.154548526E-1,-2.678527497E-2,1.262735482E-1
1.170888450E1,3.494181484E-2,1.258347929E-1,-2.673680522E-2,1.333048471E-1
1.171882550E1,2.200524323E-2,1.288546026E-1,-2.304340154E-2,1.327355931E-1
1.172876550E1,4.131322494E-4,1.194158271E-1,-2.430334315E-2,1.218645269E-1
1.173870550E1,-1.830388419E-2,9.834673256E-2,-2.332548425E-2,1.027189865E-1
1.174864550E1,-4.520713538E-2,8.528392762E-2,-2.361496910E-2,9.937152593E-2
1.175858650E1,-6.326233596E-2,7.625088096E-2,-2.937053703E-2,1.033389977E-1
1.176852650E1,-7.857337594E-2,7.856330276E-2,-3.341215104E-2,1.160273234E-1
1.177846650E1,-8.777797967E-2,7.880949229E-2,-3.918229043E-2,1.243027018E-1
1.178840750E1,-9.564176202E-2,7.247303426E-2,-4.591049999E-2,1.284813658E-1
1.179834750E1,-1.008805409E-1,6.282781810E-2,-5.666903034E-2,1.316647153E-1
1.180828750E1,-9.166653454E-2,5.133468285E-2,-6.491817534E-2,1.235004968E-1
1.181822850E1,-7.369784266E-2,4.116251320E-2,-7.011224329E-2,1.097335462E-1
1.182816850E1,-5.951997265E-2,4.332207143E-2,-6.955111772E-2,1.012757967E-1
1.183810850E1,-4.321734607E-2,5.365177989E-2,-6.864310801E-2,9.725291134E-2
1.184804850E1,-4.155952483E-2,7.031518221E-2,-6.120516360E-2,1.020661110E-1
1.185798950E1,-4.564699903E-2,8.455267549E-2,-6.032717973E-2,1.134555951E-1
1.186792950E1,-4.629627988E-2,9.229687601E-2,-5.592150986E-2,1.174277400E-1
1.187786950E1,-5.800133198E-2,9.399335086E-2,-4.720615223E-2,1.201138016E-1
1.188781050E1,-6.607630104E-2,9.434062988E-2,-3.635111079E-2,1.207792832E-1
1.189775050E1,-8.381386101E-2,8.996733278E-2,-2.653626911E-2,1.257897366E-1
1.190769050E1,-9.572751075E-2,8.856784552E-2,-2.497911826E-2,1.327854507E-1
1.191763150E1,-1.128853709E-1,8.920145780E-2,-1.975160092E-2,1.452244221E-1
1.192757150E1,-1.189861447E-1,9.082145989E-2,-1.874146238E-2,1.508558339E-1
1.193751150E1,-1.200127155E-1,9.772420675E-2,-2.121098712E-2,1.562145270E-1
1.194745150E1,-1.078402102E-1,1.081518084E-1,-2.265655063E-2,1.544009193E-1
1.195739250E1,-8.316429704E-2,1.078190506E-1,-2.128574066E-2,1.378199213E-1
1.196733250E1,-6.479514390E-2,9.868706763E-2,-1.965615340E-2,1.196825483E-1
1.197727250E1,-5.735665187E-2,8.365273476E-2,-1.866002381E-2,1.031298310E-1
1.198721350E1,-4.320488125E-2,5.317471921E-2,-3.515244648E-2,7.700588952E-2
1.199715350E1,-2.389209904E-2,1.486151759E-2,-5.057265610E-2,5.787305630E-2
1.200709350E1,8.046125993E-3,-2.503662929E-2,-6.807495654E-2,7.297789156E-2
1.201703450E1,4.485617951E-2,-5.669164285E-2,-8.219905943E-2,1.094655406E-1
1.202697450E1,7.434429228E-2,-6.675998867E-2,-1.002235934E-1,1.415229259E-1
1.203691450E1,9.239385277E-2,-4.792698100E-2,-1.128426865E-1,1.535157693E-1
1.204685550E1,7.673126459E-2,-1.076177042E-2,-1.278187037E-1,1.494694740E-1
1.205679550E1,2.463797480E-2,5.948203430E-2,-1.368082017E-1,1.512006159E-1
1.206673550E1,-3.886350244E-2,1.409944594E-1,-1.400085241E-1,2.024652963E-1
1.207667550E1,-9.604661167E-2,2.185396552E-1,-1.244652867E-1,2.692139300E-1
1.208661650E1,-1.458980590E-1,2.728756070E-1,-1.194604114E-1,3.316898105E-1
1.209655650E1,-1.773158610E-1,2.844185233E-1,-1.272260994E-1,3.584986629E-1
1.210649650E1,-1.654405594E-1,2.635297477E-1,-1.412324607E-1,3.417091081E-1
1.211643750E1,-1.073197573E-1,2.196981460E-1,-1.536276042E-1,2.887667683E-1
1.212637750E1,-3.972819820E-2,1.512197554E-1,-1.764705777E-1,2.357702461E-1
1.213631750E1,-6.622104440E-3,6.908050925E-2,-1.953398585E-1,2.073008185E-1
1.214625850E1,-2.936043963E-2,7.200361229E-3,-1.676264703E-1,1.703306026E-1
1.215619850E1,-8.724904060E-2,-6.902199239E-3,-9.381043911E-2,1.282982226E-1
1.216613850E1,-1.265213341E-1,1.386726182E-2,-2.088962123E-2,1.289818793E-1
1.217607850E1,-1.143767014E-1,4.272777960E-2,3.364778683E-2,1.266485947E-1
1.218601950E1,-3.218836337E-2,5.611176044E-2,5.485081300E-2,8.481292403E-2
1.219595950E1,8.069069684E-2,5.115823075E-2,6.408825517E-2,1.150454588E-1
1.220589950E1,1.621000767E-1,5.590558425E-2,7.898144424E-2,1.887854278E-1
1.221584050E1,1.694050133E-1,1.188213080E-1,1.163640022E-1,2.373965939E-1
1.222578050E1,9.400772303E-2,2.454471588E-1,1.717100739E-1,3.139523997E-1
1.223572050E1,-3.282355890E-2,3.961563408E-1,2.321480215E-1,4.603367640E-1
1.224566150E1,-1.739902645E-1,5.182425976E-1,2.870520055E-1,6.174519058E-1
1.225560150E1,-3.113662004E-1,5.681779981E-1,3.385957181E-1,7.310418652E-1
1.226554150E1,-4.218146801E-1,5.437064767E-1,3.782352805E-1,7.852428189E-1
1.227548150E1,-4.998583198E-1,4.567702413E-1,4.016200304E-1,7.872712633E-1
1.228542250E1,-5.536257029E-1,3.338861167E-1,4.051673710E-1,7.629822779E-1
1.229536250E1,-5.901833177E-1,1.942316741E-1,3.854023516E-1,7.311479086E-1
1.230530250E1,-6.162343621E-1,4.925636947E-2,3.701908886E-1,7.205638577E-1
1.231524350E1,-6.136633158E-1,-5.418869853E-2,3.129039407E-1,6.909616171E-1
1.232518350E1,-5.863060355E-1,-1.149846688E-1,2.355827689E-1,6.422425417E-1
1.233512350E1,-5.182574987E-1,-1.178263575E-1,1.531965435E-1,5.531212041E-1
1.234506450E1,-3.977686167E-1,-4.793436080E-2,8.030687273E-2,4.086156742E-1
1.235500450E1,-2.304071188E-1,9.051723033E-2,1.742452942E-2,2.481620914E-1
1.236494450E1,-3.100746125E-2,2.787119150E-1,-3.867495805E-2,2.830857584E-1
1.237488450E1,2.018068731E-1,4.929938316E-1,-9.712947905E-2,5.414822876E-1
1.238482550E1,4.834854305E-1,8.397341967E-1,-1.438852549E-1,9.795992288E-1
1.239476550E1,7.507630587E-1,1.596112847E0,-2.341176867E-1,1.779334843E0
1.240470550E1,8.098492622E-1,2.906997681E0,-4.330052137E-1,3.048603756E0
1.241464650E1,6.163024902E-1,4.304787159E0,-7.028511763E-1,4.405113054E0
1.242458650E1,3.918611407E-1,5.359631538E0,-9.298619628E-1,5.453792135E0
1.243452650E1,4.124560654E-1,5.959612846E0,-1.058619738E0,6.066941654E0
1.244446750E1,7.706506848E-1,5.987742901E0,-1.083223939E0,6.133542339E0
1.245440750E1,1.190250635E0,5.477910519E0,-1.055722952E0,5.704274816E0
1.246434750E1,1.230359912E0,4.816077709E0,-1.023076296E0,5.074945824E0
1.247428850E1,7.260226011E-1,4.259190083E0,-1.003977656E0,4.435738959E0
1.248422850E1,-1.293125749E-1,3.694900990E0,-9.455227852E-1,3.816153613E0
1.249416850E1,-9.478915930E-1,3.046832800E0,-8.226187229E-1,3.295207148E0
1.250410850E1,-1.535690665E0,2.158403397E0,-6.810930371E-1,2.735130484E0
1.251404950E1,-1.940673351E0,1.260958314E0,-5.556352735E-1,2.380117536E0
1.252398950E1,-2.242341280E0,5.816806555E-1,-4.462672472E-1,2.359152657E0
1.253392950E1,-2.485589266E0,3.169771135E-1,-3.553567827E-1,2.530791760E0
1.254387050E1,-2.635942698E0,4.858673513E-1,-3.203660548E-1,2.699425012E0
1.255381050E1,-2.667673111E0,9.998442531E-1,-3.262660503E-1,2.867510749E0
1.256375050E1,-2.550225735E0,1.575338721E0,-3.322203457E-1,3.015910102E0
1.257369150E1,-2.301046610E0,2.092358351E0,-2.858914733E-1,3.123221558E0
1.258363150E1,-1.983816862E0,2.484723806E0,-1.825003624E-1,3.184758722E0
1.259357150E1,-1.695572376E0,2.714480639E0,-8.411780745E-2,3.201631869E0
1.260351150E1,-1.481863022E0,2.983837605E0,-7.805193309E-3,3.331556061E0
1.261345250E1,-1.371765852E0,3.282137632E0,2.788009867E-2,3.557379132E0
1.262339250E1,-1.328047872E0,3.599091053E0,2.682149224E-2,3.836389833E0
1.263333250E1,-1.324751019E0,4.152149677E0,-3.668716643E-3,4.358362728E0
1.264327350E1,-1.347311258E0,4.679200649E0,-1.642126404E-2,4.869336300E0
1.265321350E1,-1.354395390E0,5.032280445E0,-1.088532526E-2,5.211367559E0
1.266315350E1,-1.336952686E0,5.174175739E0,1.593190804E-2,5.344136122E0
1.267309450E1,-1.291637659E0,5.223295212E0,6.365966797E-2,5.381002998E0
1.268303450E1,-1.238556862E0,5.278648376E0,1.220321655E-1,5.423379355E0
1.269297450E1,-1.180260539E0,5.435278416E0,1.870546490E-1,5.565092617E0
1.270291550E1,-1.151062250E0,5.481863022E0,2.209132761E-1,5.605762140E0
1.271285550E1,-1.111960769E0,5.093262672E0,2.050124854E-1,5.217260921E0
1.272279550E1,-1.075380921E0,4.337722301E0,2.227733731E-1,4.474584547E0
1.273273550E1,-1.056081533E0,3.466680527E0,2.381422073E-1,3.631789337E0
1.274267650E1,-1.059086680E0,2.844275475E0,2.712908387E-1,3.047157083E0
1.275261650E1,-1.043271780E0,2.507495403E0,3.291331232E-1,2.735740817E0
1.276255650E1,-9.607398510E-1,2.404624939E0,3.625366092E-1,2.614703607E0
1.277249750E1,-8.419492841E-1,2.447147369E0,3.742410541E-1,2.614854721E0
1.278243750E1,-6.941166520E-1,2.540370703E0,3.426764607E-1,2.655693580E0
1.279237750E1,-5.095856786E-1,2.701078892E0,3.054646552E-1,2.765648821E0
1.280231850E1,-2.577131689E-1,2.968905687E0,2.914849222E-1,2.994291321E0
1.281225850E1,1.009916961E-1,3.271062613E0,2.986283600E-1,3.286218014E0
1.282219850E1,5.362746716E-1,3.452769995E0,3.455673754E-1,3.511214601E0
1.283213850E1,9.692803025E-1,3.429089546E0,4.469829500E-1,3.591372047E0
1.284207950E1,1.300838828E0,3.211864233E0,5.874710679E-1,3.514736941E0
1.285201950E1,1.501098037E0,2.887612343E0,7.705731988E-1,3.344455623E0
1.286195950E1,1.666139960E0,2.529137135E0,8.870310783E-1,3.155848720E0
1.287190050E1,1.931062341E0,1.821410656E0,8.737560511E-1,2.794635607E0
1.288184050E1,2.322701216E0,5.748177767E-1,6.801093221E-1,2.487550020E0
1.289178050E1,2.754467487E0,-5.279306769E-1,4.118467867E-1,2.834681590E0
1.290172150E1,3.055272579E0,-8.941377401E-1,2.136495560E-1,3.190582857E0
1.291166150E1,3.195434809E0,-6.287683249E-1,1.344453990E-1,3.259482902E0
1.292160150E1,3.225795031E0,-1.604579762E-2,1.339553744E-1,3.228615042E0
1.293154150E1,3.139203310E0,7.841435671E-1,1.445847452E-1,3.238886121E0
1.294148250E1,2.993546009E0,1.488209248E0,2.724426985E-2,3.343176143E0
1.295142250E1,2.967205524E0,2.082234621E0,-2.165520936E-1,3.631377762E0
1.296136250E1,2.962018013E0,2.888031721E0,-3.574998975E-1,4.152358861E0
1.297130350E1,2.741831541E0,4.168473244E0,1.232976392E-1,4.990892875E0
1.298124350E1,2.031773806E0,6.184524059E0,1.477728128E0,6.675336925E0
1.299118350E1,9.054431915E-1,8.737922668E0,3.089629173E0,9.312192457E0
1.300112450E1,-4.990701377E-2,1.055479622E1,4.116848469E0,1.132937135E1
1.301106450E1,-5.711379647E-1,1.074908543E1,3.761610985E0,1.140257661E1
1.302100450E1,-6.837950349E-1,9.595958710E0,2.302367210E0,9.891961079E0
1.303094550E1,1.148500204E0,8.006185532E0,1.301309824E0,8.192158857E0
1.304088550E1,3.066586733E0,7.026693821E0,9.703542590E-1,7.727869540E0
1.305082550E1,2.981298923E0,5.530177593E0,6.712242365E-1,6.318350217E0
1.306076550E1,2.439594507E0,3.702169657E0,4.549853802E-1,4.456982524E0
1.307070650E1,1.608724952E0,2.028514147E0,4.632216990E-1,2.630102651E0
1.308064650E1,6.595865488E-1,4.905901253E-1,7.422168851E-1,1.107528325E0
1.309058650E1,-1.316890717E-1,-1.223582387E0,1.239420295E0,1.746613448E0
1.310052750E1,-3.635196388E-1,-3.282076597E0,1.746262908E0,3.735452779E0
1.311046750E1,6.460044533E-2,-5.271691322E0,2.009909153E0,5.642219193E0
1.312040750E1,1.070759773E0,-6.817451954E0,1.568482637E0,7.077027301E0
1.313034850E1,2.406298876E0,-7.763263702E0,5.164417028E-1,8.144031534E0
1.314028850E1,3.839962482E0,-6.271709442E0,-4.851463139E-1,7.369872329E0
1.315022850E1,6.584517002E0,-3.928269744E-1,-6.611888409E-1,6.629279589E0
1.316016850E1,8.403422356E0,4.788428783E0,-5.022867918E-1,9.684980615E0
1.317010950E1,8.354792595E0,7.001101494E0,-4.838542640E-1,1.091109969E1
1.318004996E1,7.571728230E0,7.723750591E0,-5.808628201E-1,1.083165699E1
1.318998996E1,6.217898369E0,9.466254234E0,-6.369603872E-1,1.134363028E1
1.319993096E1,3.053077936E0,1.571499729E1,-5.193126202E-1,1.601724416E1
1.320987096E1,-1.495444626E-1,1.866792870E1,-8.186584115E-1,1.868646909E1
1.321981096E1,-1.704329371E0,1.771861649E1,-1.513604522E0,1.786463287E1
1.322975196E1,-1.335614920E0,1.653490829E1,-2.008697510E0,1.670993493E1
1.323969196E1,2.117352724E0,1.268189621E1,-1.411865115E0,1.293472215E1
1.324963196E1,2.548428774E0,6.519793510E0,-1.232517719E0,7.107833465E0
1.325957196E1,2.294665337E0,1.100744724E0,-1.438449025E0,2.923399315E0
1.326951296E1,1.724245906E0,-2.701375008E0,-1.688793540E0,3.622495617E0
1.327945296E1,1.160634518E0,-4.964862823E0,-2.191235781E0,5.549635086E0
1.328939296E1,5.368349552E-1,-5.857056618E0,-3.212804079E0,6.701896302E0
1.329933396E1,-3.675926328E-1,-6.163490772E0,-4.654435635E0,7.732238610E0
1.330927396E1,-1.471176863E0,-7.373534203E0,-5.894258499E0,9.553829141E0
1.331921396E1,-2.827933073E0,-8.872558594E0,-6.930909157E0,1.160848841E1
1.332915496E1,-4.532641411E0,-9.893888474E0,-8.065407753E0,1.354565131E1
1.333909496E1,-6.492773533E0,-9.452955246E0,-9.416853905E0,1.483885469E1
1.334903496E1,-7.671505451E0,-5.849190235E0,-1.059565067E1,1.432943947E1
1.335897496E1,-7.737378120E0,2.152170241E-1,-9.940300941E0,1.259852854E1
1.336891596E1,-6.856509686E0,6.464806080E0,-7.071196556E0,1.178164944E1
1.337885596E1,-5.507655621E0,1.127980137E1,-4.091494083E0,1.320259494E1
1.338879596E1,-4.518607140E0,1.363452339E1,-2.525494337E0,1.458410643E1
1.339873696E1,-3.674124956E0,1.400102520E1,-1.933435917E0,1.460363226E1
1.340867696E1,-1.303590178E0,1.316895580E1,-2.132907867E0,1.340410535E1
1.341861696E1,3.399341345E0,8.781164169E0,-2.904132843E0,9.853849670E0
1.342855796E1,5.911049366E0,3.499340057E0,-3.068183899E0,7.523273083E0
1.343849796E1,6.148467064E0,-1.229796648E0,-2.814399719E0,6.872910069E0
1.344843796E1,5.260755062E0,-4.847880840E0,-2.387862682E0,7.541841994E0
1.345837796E1,4.085673809E0,-6.956554413E0,-1.806094885E0,8.267306605E0
1.346831896E1,2.486911297E0,-6.208020687E0,-9.445720315E-1,6.753996222E0
1.347825896E1,-8.483656049E-1,-3.850718141E-1,9.761705399E-1,1.349412251E0
1.348819896E1,-2.796734571E0,-1.680027097E-1,1.955149651E0,3.416512744E0
1.349813996E1,-4.044964314E0,-1.368014574E0,2.406369448E0,4.901409398E0
1.350807996E1,-4.408730030E0,-2.638641834E0,2.577343225E0,5.748219664E0
1.351801996E1,-4.298727512E0,-3.212302208E0,2.637855768E0,5.979651056E0
1.352796096E1,-4.089872360E0,-3.262365580E0,2.717586517E0,5.895367807E0
1.353790096E1,-3.632401943E0,-3.074801207E0,2.824937344E0,5.534348863E0
1.354784096E1,-2.738259315E0,-2.486819506E0,2.847989798E0,4.668338165E0
1.355778196E1,-1.587344408E0,-1.724351764E0,2.825470686E0,3.671012922E0
1.356772196E1,-4.815908968E-1,-1.104719639E0,2.795503616E0,3.044203630E0
1.357766196E1,3.936559260E-1,-8.377395868E-1,2.739666700E0,2.891806742E0
1.358760196E1,8.081676960E-1,-1.106449842E0,2.654315948E0,2.987098832E0
1.359754296E1,1.040508270E0,-1.601333857E0,2.486421824E0,3.135158858E0
1.360748296E1,1.153497458E0,-1.950452328E0,2.098437071E0,3.088407163E0
1.361742296E1,1.101065397E0,-1.774458408E0,1.554855227E0,2.603578774E0
1.362736396E1,9.339417815E-1,-1.314711809E0,1.056983471E0,1.928193053E0
1.363730396E1,8.645033240E-1,-9.834794998E-1,6.966782212E-1,1.483225697E0
1.364724396E1,9.529235363E-1,-8.924251795E-1,5.259071589E-1,1.407502862E0
1.365718496E1,1.226947904E0,-8.482720852E-1,5.242767930E-1,1.581085970E0
1.366712496E1,1.520008922E0,-7.770813107E-1,7.256076336E-1,1.854936366E0
1.367706496E1,1.202570796E0,-1.217417359E0,1.712613463E0,2.421017642E0
1.368700596E1,-6.101123095E-1,-2.408019543E0,3.634049416E0,4.401943923E0
1.369694596E1,-2.705243111E0,-3.979973316E0,5.312440395E0,7.168022798E0
1.370688596E1,-3.361946583E0,-5.465166569E0,5.403848171E0,8.388820269E0
1.371682596E1,-1.522055626E0,-6.969678402E0,4.412961483E0,8.388521884E0
1.372676696E1,2.164735317E0,-7.617170811E0,3.478936911E0,8.649298942E0
1.373670696E1,4.666680813E0,-7.389838219E0,2.561137915E0,9.107526894E0
1.374664696E1,6.654350281E0,-5.791510105E0,1.938738346E0,9.032202020E0
1.375658796E1,8.197987556E0,-7.222440243E-1,1.820761442E0,8.428748937E0
1.376652796E1,7.606242180E0,5.653620243E0,1.762959957E0,9.639832455E0
1.377646796E1,5.213249207E0,9.358876228E0,1.288803577E0,1.079015969E1
1.378640896E1,2.706665039E0,1.042097664E1,4.605536759E-1,1.077659034E1
1.379634896E1,3.347695827E0,8.790581703E0,3.870669305E-1,9.414415268E0
1.380628896E1,3.711731195E0,3.373322487E0,5.671409965E-1,5.047563965E0
1.381622896E1,1.296393275E0,1.065094352E0,3.729065359E-1,1.718755593E0
1.382616996E1,-4.840988815E-1,-8.389564753E-1,2.317083627E-1,9.959359717E-1
1.383610996E1,-1.012726545E0,-2.304954529E0,1.235089153E-1,2.520651679E0
1.384604996E1,-7.378184199E-1,-2.605440140E0,-4.118434712E-2,2.708207986E0
1.385599096E1,-2.868839800E-1,-1.356063724E0,-3.456976414E-1,1.428537049E0
1.386593096E1,-3.357673585E-1,9.619962573E-1,-6.718954444E-1,1.220499900E0
1.387587096E1,-8.355590701E-1,2.742872953E0,-1.015805125E0,3.041935412E0
1.388581196E1,-1.239951372E0,3.135586739E0,-1.388901353E0,3.646701327E0
1.389575196E1,-1.599912524E0,2.733159304E0,-1.757199764E0,3.621827008E0
1.390569196E1,-1.936955214E0,2.135383844E0,-2.156961441E0,3.600575276E0
1.391563196E1,-2.255290270E0,1.491257191E0,-2.609604359E0,3.757687736E0
1.392557296E1,-2.496242762E0,8.978571892E-1,-3.092453003E0,4.074388424E0
1.393551296E1,-2.629614830E0,6.214136481E-1,-3.513685226E0,4.432495115E0
1.394545296E1,-2.851788044E0,3.822844028E-1,-3.862626791E0,4.816505179E0
1.395539396E1,-3.184361696E0,-7.718677819E-2,-4.190564156E0,5.263738705E0
1.396533396E1,-3.763072252E0,-1.028622627E0,-4.704422474E0,6.111494752E0
1.397527396E1,-4.846430779E0,-2.055891514E0,-6.122931004E0,8.074952958E0
1.398521496E1,-5.572404861E0,2.773202181E0,-8.247405052E0,1.033257162E1
1.399515496E1,-4.765422344E0,9.371618271E0,-9.558461189E0,1.420917519E1
1.400509496E1,-3.577951431E0,1.096100330E1,-8.425134659E0,1.428034397E1
1.401503496E1,-2.386688709E0,9.360033989E0,-5.402167320E0,1.106751693E1
1.402497596E1,-1.495257318E-1,6.844418526E0,-2.719351053E0,7.366362267E0
1.403491596E1,1.642224789E0,4.333593369E0,-1.116516590E0,4.766921757E0
1.404485596E1,2.373671770E0,2.455647469E0,-3.019745946E-1,3.428660207E0
1.405479696E1,2.367742300E0,1.503733039E0,-4.450975731E-2,2.805244690E0
1.406473696E1,1.628157258E0,1.137642264E0,-4.098207876E-2,1.986656868E0
1.407467696E1,6.105370522E-1,6.616490483E-1,-2.035121471E-1,9.230125401E-1
1.408461796E1,-2.832203805E-1,-6.887158751E-1,-4.582162797E-1,8.743600515E-1
1.409455796E1,-9.347142577E-1,-2.901902676E0,-5.752981305E-1,3.102530874E0
1.410449796E1,-1.374203324E0,-4.757219791E0,-3.063499928E-1,4.961191917E0
1.411443896E1,-1.629879355E0,-5.706091404E0,2.274401933E-1,5.938662717E0
1.412437896E1,-1.746806622E0,-5.980974197E0,8.802567124E-1,6.292713056E0
1.413431896E1,-1.810328841E0,-5.868581772E0,1.439699769E0,6.307953547E0
1.414425896E1,-1.844828606E0,-5.474819660E0,1.887052059E0,6.077664714E0
1.415419996E1,-1.884879947E0,-4.903592587E0,2.210589409E0,5.699534911E0
1.416413996E1,-1.955189109E0,-4.465306759E0,2.472340822E0,5.465729416E0
1.417407996E1,-1.996418834E0,-4.188068867E0,2.614440203E0,5.325495899E0
1.418402063E1,-1.396812320E0,-3.402928829E0,2.638747692E0,4.527029783E0
1.419396062E1,-2.946504354E-1,-2.266062737E0,2.190090895E0,3.165178878E0
1.420390062E1,8.438642621E-1,-9.338957667E-1,1.388854504E0,1.874349228E0
1.421384162E1,1.413134694E0,9.832416475E-2,6.229941249E-1,1.547494422E0
1.422378162E1,1.615429521E0,8.824997544E-1,1.705749780E-1,1.848651989E0
1.423372163E1,1.748263478E0,1.462210536E0,2.140547708E-2,2.279241768E0
1.424366262E1,1.726893187E0,1.674628854E0,2.649903856E-2,2.405669153E0
1.425360263E1,1.674960494E0,1.674307346E0,4.935827851E-2,2.368804337E0
1.426354263E1,4.733887613E-1,2.621184111E0,-9.137412161E-2,2.665155210E0
1.427348262E1,-2.044475079E-1,1.521578431E0,-3.241309524E-1,1.569095465E0
1.428342363E1,2.391541302E-1,5.301546454E-1,-4.443998039E-1,7.319493369E-1
1.429336362E1,6.352255940E-1,7.072202563E-1,-4.750533104E-1,1.062707718E0
1.430330362E1,8.144546747E-1,8.733178973E-1,-4.755994380E-1,1.285385309E0
1.431324462E1,9.689111114E-1,5.768718123E-1,-4.050126076E-1,1.198167368E0
1.432318462E1,1.379802465E0,-1.146558672E-1,1.276724692E-2,1.384616847E0
1.433312463E1,1.564519048E0,-1.108184814E0,1.482117057E0,2.423316819E0
1.434306562E1,1.017146230E0,-2.274908066E0,4.088211060E0,4.787824436E0
1.435300563E1,1.615751088E-1,-3.384346485E0,6.566894054E0,7.389452292E0
1.436294563E1,-2.387796938E-1,-4.942545414E0,7.099015713E0,8.653426778E0
1.437288562E1,2.897637486E-1,-6.982437611E0,5.939574242E0,9.171528781E0
1.438282663E1,1.813842297E0,-9.014131546E0,3.963162422E0,1.001255451E1
1.439276662E1,3.474104643E0,-9.957135201E0,2.108723640E0,1.075456461E1
1.440270662E1,5.000510216E0,-9.109169960E0,8.700839877E-1,1.042780542E1
1.441264762E1,1.123674393E1,3.024152279E0,8.688517213E-1,1.166896801E1
1.442258762E1,1.306742382E1,9.101137161E0,1.116110444E0,1.596351983E1
1.443252763E1,1.131892204E1,9.179251671E0,1.048621655E0,1.461082697E1
1.444246862E1,7.954439640E0,1.463634682E1,1.119005322E0,1.669574590E1
1.445240863E1,2.666382074E0,2.189948463E1,9.658311605E-1,2.208234250E1
1.446234863E1,2.189306021E0,1.370286083E1,9.062561393E-2,1.387694739E1
1.447228963E1,1.991096020E0,2.200160503E0,8.853784762E-3,2.967363812E0
1.448222963E1,2.789558172E-1,-2.071930170E0,-1.528622508E-1,2.096205583E0
1.449216962E1,-1.023818374E0,-2.570769548E0,-4.360992908E-1,2.801293045E0
1.450210962E1,-1.827355146E0,-1.532854676E0,-8.376752138E-1,2.527957684E0
1.451205062E1,-1.919757485E0,-4.642919004E-1,-1.622783422E0,2.556259339E0
1.452199062E1,-2.000087976E0,2.882919908E-1,-2.914382219E0,3.546419026E0
1.453193063E1,-2.447862625E0,1.467756748E0,-4.058578491E0,4.961693327E0
1.454187162E1,-2.940721512E0,3.416118145E0,-4.839594364E0,6.613575417E0
1.455181163E1,-3.107872963E0,4.726779938E0,-5.251769543E0,7.718964067E0
1.456175163E1,-2.861809731E0,4.888994694E0,-5.210663319E0,7.696962795E0
1.457169263E1,-2.330816746E0,3.797978401E0,-4.994847298E0,6.693716917E0
1.458163263E1,-1.873620510E0,2.519728661E0,-4.797551632E0,5.733758628E0
1.459157262E1,-1.502076268E0,1.560099602E0,-4.674307823E0,5.151630568E0
1.460151363E1,-1.188209772E0,6.558616161E-1,-4.531375408E0,4.730260036E0
1.461145362E1,-1.085486650E0,-2.448077649E-1,-4.351497650E0,4.491519109E0
1.462139362E1,-1.292482018E0,-1.003650904E0,-4.145780563E0,4.457052993E0
1.463133363E1,-1.770542383E0,-1.868580937E0,-3.963247299E0,4.725859097E0
1.464127462E1,-2.650126696E0,-3.359183788E0,-3.827232599E0,5.740644267E0
1.465121463E1,-4.221624851E0,-6.134667397E0,-4.050479412E0,8.477183726E0
1.466115463E1,-5.901263714E0,-7.875102043E0,-4.763339520E0,1.093304848E1
1.467109563E1,-2.730260134E0,1.683248162E0,-6.007462025E0,6.810084049E0
1.468103563E1,-1.819276512E-1,8.020817757E0,-5.213943958E0,9.568271879E0
1.469097562E1,2.012825906E-1,9.725337029E0,-3.147783518E0,1.022405184E1
1.470091663E1,-1.675793380E-1,9.441824913E0,-1.475166082E0,9.557837386E0
1.471085662E1,1.125436649E-1,8.504778862E0,-4.600702822E-1,8.517957163E0
1.472079662E1,2.035079002E0,6.320448399E0,-2.284972817E-1,6.643931480E0
1.473073663E1,4.178392887E0,2.759638548E0,-3.449772596E-1,5.019320805E0
1.474067762E1,5.210134029E0,-7.285705209E-1,-3.516357839E-1,5.272566674E0
1.475061763E1,5.137306213E0,-3.798543453E0,-2.489523143E-1,6.393967841E0
1.476055763E1,4.363586903E0,-5.924015999E0,-4.084732383E-2,7.357752695E0
1.477049863E1,2.397888899E0,-4.492074966E0,5.323632360E-1,5.119767504E0
1.478043863E1,1.322073936E-1,-2.234101057E0,1.422513366E0,2.651835327E0
1.479037862E1,-1.332166314E0,-1.382298589E0,2.007049561E0,2.777348450E0
1.480031963E1,-2.209125757E0,-1.024392843E0,2.380866528E0,3.405604606E0
1.481025962E1,-2.659806728E0,-9.108519554E-1,2.555965662E0,3.799629401E0
1.482019962E1,-2.745907545E0,-1.350725532E0,2.559426308E0,3.989377236E0
1.483014062E1,-2.579873800E0,-2.192740440E0,2.413480043E0,4.157973711E0
1.484008062E1,-2.382564306E0,-2.959072113E0,2.201061487E0,4.390602705E0
1.485002063E1,-2.262879372E0,-3.640021563E0,1.950005889E0,4.708811208E0
1.485996063E1,-2.034071922E0,-4.011998177E0,1.667849064E0,4.797426232E0
1.486990163E1,-1.380922914E0,-4.244653225E0,1.425969839E0,4.685874419E0
1.487984163E1,-7.279909253E-1,-3.753543139E0,1.107623935E0,3.980689345E0
1.488978162E1,-5.491268635E-1,-3.225322962E0,8.358046412E-1,3.376805875E0
1.489972263E1,-5.582677722E-1,-2.850139380E0,6.873843670E-1,2.984535920E0
1.490966262E1,-5.475493670E-1,-2.521536827E0,6.445950866E-1,2.659597922E0
1.491960262E1,-4.205627441E-1,-2.275887012E0,6.807625890E-1,2.412461900E0
1.492954362E1,-1.400200427E-1,-2.430277109E0,7.284320593E-1,2.540957635E0
1.493948362E1,1.513776183E-1,-2.472071409E0,7.332823873E-1,2.582974118E0
1.494942363E1,6.254631877E-1,-1.812840104E0,8.888692856E-1,2.113689204E0
1.495936363E1,1.078516006E0,-1.191278100E0,1.054913640E0,1.922285899E0
1.496930463E1,1.268411636E0,-9.938167930E-1,1.448825002E0,2.166941112E0
1.497924463E1,6.282436848E-1,-1.077540874E0,2.684768438E0,2.960365861E0
1.498918462E1,-7.560610175E-1,-1.771765471E0,4.355916023E0,4.762854769E0
1.499912563E1,-1.562413454E0,-3.261234760E0,4.828015327E0,6.032124001E0
1.500906562E1,-1.301525950E0,-4.939930916E0,3.813864708E0,6.375143235E0
1.501900562E1,-2.958295941E-1,-6.238976955E0,2.457867384E0,6.712187473E0
1.502894662E1,9.645585418E-1,-7.136910439E0,1.747940063E0,7.410881071E0
1.503888662E1,3.107724190E0,-6.832764626E0,1.733121514E0,7.703786877E0
1.504882663E1,6.256082535E0,-4.481229782E0,2.194993973E0,8.002373872E0
1.505876762E1,8.461758614E0,-2.313798428E0,2.482309103E0,9.116845972E0
1.506870763E1,9.366091728E0,-5.989307165E-1,2.509060144E0,9.714822442E0
1.507864763E1,9.222278595E0,2.816889048E0,2.317397594E0,9.917440093E0
1.508858762E1,7.454256058E0,9.130320549E0,1.748448610E0,1.191577774E1
1.509852863E1,4.362176895E0,1.222479439E1,8.631649613E-1,1.300842953E1
1.510846862E1,2.246206999E0,1.185841084E1,5.257117003E-2,1.206938760E1
1.511840862E1,4.124341488E0,5.779894829E0,5.209578276E-1,7.119604905E0
1.512834962E1,2.350653648E0,1.302881956E0,8.964003921E-1,2.833126829E0
1.513828962E1,-9.183389693E-2,-1.612489700E0,1.155651927E0,1.985972778E0
1.514822963E1,-1.155263424E0,-2.877187014E0,1.234814644E0,3.337305185E0
1.515817062E1,-1.124882936E0,-3.029428959E0,1.088846922E0,3.410042383E0
1.516811063E1,-3.348682225E-1,-2.048254728E0,7.156826258E-1,2.195378277E0
1.517805063E1,4.871710837E-1,6.476697326E-2,2.105984986E-1,5.346794864E-1
1.518799046E1,5.493367314E-1,2.417309761E0,-3.331646621E-1,2.501230900E0
1.519793146E1,-8.858875372E-3,3.747804642E0,-9.370870590E-1,3.863191720E0
1.520787146E1,-4.657590389E-1,3.656419516E0,-1.552863717E0,3.999715100E0
1.521781146E1,-7.520244718E-1,2.741900206E0,-2.181790352E0,3.583820124E0
1.522775246E1,-9.990358949E-1,1.657917738E0,-2.800293684E0,3.404175181E0
1.523769246E1,-1.261755347E0,7.943273783E-1,-3.354631186E0,3.671039762E0
1.524763246E1,-1.745672226E0,2.912103571E-2,-3.768130064E0,4.152953616E0
1.525757346E1,-2.370544672E0,-8.210307956E-1,-4.015662670E0,4.734883345E0
1.526751346E1,-2.835489511E0,-1.251079321E0,-4.098983765E0,5.138761343E0
1.527745346E1,-3.137533188E0,-1.298625469E0,-4.054026127E0,5.288257790E0
1.528739446E1,-3.511389732E0,-1.436861634E0,-4.088336468E0,5.577537475E0
1.529733446E1,-3.836237192E0,-1.583381891E0,-4.316874504E0,5.988256799E0
1.530727446E1,-4.103197098E0,-1.480252028E0,-4.669034958E0,6.389621266E0
1.531721446E1,-4.853788853E0,-1.014313698E0,-5.349580288E0,7.294251693E0
1.532715546E1,-3.970036030E0,4.350546360E0,-6.898816109E0,9.070948319E0
1.533709546E1,-2.274993896E0,9.228159904E0,-7.368973255E0,1.202648325E1
1.534703546E1,-1.066606522E0,1.052058411E1,-5.548453808E0,1.194176198E1
1.535697646E1,4.131460190E-1,9.264946938E0,-3.047993183E0,9.762181817E0
1.536691646E1,2.247480392E0,6.819207191E0,-1.441197395E0,7.323237315E0
1.537685646E1,3.611935139E0,4.149230957E0,-6.171389222E-1,5.535616807E0
1.538679746E1,4.297692299E0,1.657683253E0,-2.798381150E-1,4.614800346E0
1.539673746E1,4.565744400E0,2.247338742E-1,-2.711284459E-1,4.579305392E0
1.540667746E1,3.692137957E0,8.234838843E-1,-3.622500896E-1,3.800162303E0
1.541661846E1,1.757014751E0,-2.784204483E-2,-5.167440176E-1,1.831638719E0
1.542655846E1,-1.710576415E-1,-2.324703217E0,-6.115543842E-1,2.409876455E0
1.543649846E1,-1.549984813E0,-4.282125950E0,-3.896036744E-1,4.570650566E0
1.544643846E1,-2.364381552E0,-4.797143459E0,1.006104946E-1,5.349112820E0
1.545637946E1,-2.739753723E0,-4.401469231E0,6.735087037E-1,5.228077642E0
1.546631946E1,-2.802595377E0,-3.666189671E0,1.139567494E0,4.753325323E0
1.547625946E1,-2.640033484E0,-2.878036737E0,1.465827942E0,4.171513372E0
1.548620046E1,-2.393002272E0,-2.184149504E0,1.599511385E0,3.613226480E0
1.549614046E1,-2.021269083E0,-1.495167851E0,1.525117993E0,2.940585061E0
1.550608046E1,-1.574064970E0,-9.632001519E-1,1.203471065E0,2.203129062E0
1.551602146E1,-1.180173635E0,-4.697462320E-1,6.862065792E-1,1.443728091E0
1.552596146E1,-6.834841967E-1,-1.974089891E-1,1.187790930E-1,7.212693179E-1
1.553590146E1,-5.102610588E-2,-4.215206504E-1,-4.063722491E-1,5.877258945E-1
1.554584246E1,3.553115427E-1,-8.814663887E-1,-7.602767944E-1,1.217066182E0
1.555578246E1,3.727094531E-1,-1.475984335E0,-9.214411974E-1,1.779465081E0
1.556572246E1,5.349316597E-1,-2.623917341E0,-1.024294615E0,2.867101943E0
1.557566246E1,-1.207305789E0,-1.730872869E0,-4.024240971E-1,2.148360610E0
1.558560346E1,-1.017516971E0,-1.565851092E0,6.446149945E-1,1.975540159E0
1.559554346E1,-1.486712694E-2,-1.540017247E0,7.202553153E-1,1.700188776E0
1.560548346E1,1.307278872E-1,1.455019474E0,7.452780604E-1,1.640003304E0
1.561542446E1,6.005951762E-1,2.426270008E0,1.021356940E0,2.700124204E0
1.562536446E1,1.051947355E0,3.326623201E0,1.430596352E0,3.770891285E0
1.563530446E1,3.242602646E-1,3.117208242E0,2.135485172E0,3.792417285E0
1.564524546E1,-1.808763623E0,1.674406409E0,3.336664200E0,4.148323836E0
1.565518546E1,-3.375504017E0,1.564152837E-1,4.361167431E0,5.517089311E0
1.566512546E1,-3.309392691E0,-1.567370296E0,3.913083553E0,5.359193271E0
1.567506546E1,-2.256525517E0,-3.273814678E0,2.887452364E0,4.913975082E0
1.568500646E1,-1.089674354E0,-4.313255310E0,2.304353952E0,5.010150567E0
1.569494646E1,1.263727155E-2,-4.995254517E0,2.188926220E0,5.453817505E0
1.570488646E1,1.173454165E0,-5.501483917E0,2.342750072E0,6.093586618E0
1.571482746E1,2.323937654E0,-5.942477226E0,2.588859797E0,6.885921641E0
1.572476746E1,3.656688452E0,-6.100580692E0,2.883063316E0,7.674666723E0
1.573470746E1,7.296753407E0,-3.883769274E0,3.722393513E0,9.065455725E0
1.574464846E1,1.020349121E1,-1.013281941E0,4.247399330E0,1.109857533E1
1.575458846E1,1.057685089E1,3.671019897E-2,3.925954103E0,1.128203164E1
1.576452846E1,9.782811165E0,1.196483254E0,3.242699146E0,1.037545489E1
1.577446946E1,8.132067680E0,8.892770767E0,2.894435883E0,1.239312938E1
1.578440946E1,4.325169563E0,1.431507969E1,2.530945063E0,1.516688106E1
1.579434946E1,3.291489363E0,6.950419426E0,1.755981803E0,7.888327105E0
1.580428946E1,1.314481974E0,-5.527346730E-1,1.169254899E0,1.844054093E0
1.581423046E1,-2.867007814E-2,-4.490473270E0,8.196848631E-1,4.564762364E0
1.582417046E1,-8.776293397E-1,-5.133054733E0,5.335314274E-1,5.234800850E0
1.583411046E1,-1.474535227E0,-2.397284985E0,1.776462793E-1,2.820068728E0
1.584405146E1,-1.541202426E0,2.670588195E-1,-2.712548077E-1,1.587515197E0
1.585399146E1,-1.332158566E0,1.372804165E0,-7.942777872E-1,2.071259260E0
1.586393146E1,-1.157396317E0,1.520085216E0,-1.326863647E0,2.326111010E0
1.587387246E1,-9.765186310E-1,1.220460773E0,-1.967116594E0,2.512500911E0
1.588381246E1,-7.998269796E-1,1.462725401E0,-2.556882381E0,3.052365690E0
1.589375246E1,-5.776316524E-1,2.343067169E0,-2.825479507E0,3.715771324E0
1.590369346E1,-5.663971305E-1,2.004449129E0,-2.781577110E0,3.475024207E0
1.591363346E1,-1.014731884E0,7.331028581E-1,-2.678956509E0,2.957013455E0
1.592357346E1,-1.493834019E0,-2.294809669E-1,-2.779170036E0,3.163540371E0
1.593351346E1,-1.903854847E0,-9.922575951E-1,-2.822375774E0,3.546130768E0
1.594345446E1,-2.395204067E0,-1.705148816E0,-2.716677904E0,4.003108023E0
1.595339446E1,-3.075408459E0,-2.367495775E0,-2.613526583E0,4.679069847E0
1.596333446E1,-4.008896828E0,-3.047058821E0,-2.802099943E0,5.762602305E0
1.597327546E1,-5.483189583E0,-4.311175346E0,-4.084059238E0,8.082768135E0
1.598321546E1,-6.851873875E0,-4.086966991E0,-6.371901512E0,1.021041643E1
1.599315546E1,-5.873161316E0,5.160202503E0,-9.640847206E0,1.241239899E1
