"Time (s)","Acceleration x (m/s^2)","Acceleration y (m/s^2)","Acceleration z (m/s^2)","Absolute acceleration (m/s^2)"
1.554375001E-2,-2.626138916E0,2.620301056E0,8.638835449E0,9.401705226E0
2.548575000E-2,-2.438878326E0,2.328707428E0,9.352700958E0,9.942033041E0
3.542675001E-2,-2.391427002E0,2.046394501E0,1.017164795E1,1.064749151E1
4.536875000E-2,-2.670895844E0,1.833986206E0,1.014560211E1,1.065037240E1
5.530975001E-2,-2.943179626E0,1.788480835E0,9.435778198E0,1.004464435E1
6.525175000E-2,-2.954406281E0,1.899549866E0,8.978030090E0,9.640634339E0
7.519275000E-2,-2.870730286E0,1.995350647E0,8.918154602E0,9.578935123E0
8.513475000E-2,-2.771187286E0,2.146685944E0,8.918304291E0,9.582478330E0
9.507575000E-2,-2.621498566E0,2.280357971E0,8.959468689E0,9.609597619E0
1.050167500E-1,-2.540217590E0,2.315983887E0,9.041647797E0,9.673049243E0
1.149587500E-1,-2.598296814E0,2.297572174E0,9.028475189E0,9.671781039E0
1.248997500E-1,-2.681673431E0,2.223925323E0,9.067843323E0,9.714061909E0
1.348417500E-1,-2.777324524E0,2.209106140E0,9.255403290E0,9.912425107E0
1.447827500E-1,-2.796185303E0,2.210303650E0,9.448950806E0,1.009884973E1
1.547247500E-1,-2.712359619E0,2.199825439E0,9.482930145E0,1.010554753E1
1.646657500E-1,-2.630330200E0,2.156565399E0,9.535770264E0,1.012424446E1
1.746077500E-1,-2.600691833E0,2.164798279E0,9.560468903E0,1.014162291E1
1.845487500E-1,-2.563718719E0,2.260449371E0,9.524393921E0,1.011910888E1
1.944907500E-1,-2.542163544E0,2.318378906E0,9.416468353E0,1.002533553E1
2.044317500E-1,-2.573298798E0,2.328557739E0,9.310937805E0,9.936680062E0
2.143737500E-1,-2.594704285E0,2.332449646E0,9.274862823E0,9.909384041E0
2.243147500E-1,-2.587369537E0,2.308948517E0,9.254505157E0,9.882893811E0
2.342567500E-1,-2.596350861E0,2.245929565E0,9.159752197E0,9.781937319E0
2.441977500E-1,-2.547552338E0,2.243384857E0,9.214837646E0,9.820184895E0
2.541397500E-1,-2.490371246E0,2.227667542E0,9.352401581E0,9.931357760E0
2.640807500E-1,-2.439028015E0,2.258503418E0,9.367969208E0,9.940248610E0
2.740227500E-1,-2.432741089E0,2.275268555E0,9.273964691E0,9.854009199E0
2.839637500E-1,-2.493963776E0,2.299817505E0,9.182654572E0,9.789288067E0
2.939057500E-1,-2.434237976E0,2.309397583E0,9.230554962E0,9.821505823E0
3.038467500E-1,-2.307900696E0,2.233655090E0,9.342522125E0,9.879187231E0
3.137877500E-1,-2.309397583E0,2.212399292E0,9.336384888E0,9.868946782E0
3.237297500E-1,-2.358495483E0,2.233056335E0,9.205107880E0,9.761303838E0
3.336707500E-1,-2.430196381E0,2.261646881E0,9.081315308E0,9.669084175E0
3.436127500E-1,-2.508782959E0,2.211800537E0,9.005572815E0,9.606580832E0
3.535537500E-1,-2.449057159E0,2.120041351E0,9.063801727E0,9.625225091E0
3.634957500E-1,-2.415826263E0,2.067500610E0,9.117989044E0,9.656526266E0
3.734367500E-1,-2.465822296E0,2.073039093E0,9.107211456E0,9.660179666E0
3.833787500E-1,-2.454895020E0,2.112856293E0,9.131910095E0,9.689295808E0
3.933197500E-1,-2.351011047E0,2.132016449E0,9.210197296E0,9.741687806E0
4.032617500E-1,-2.307751007E0,2.158062286E0,9.312883759E0,9.834264154E0
4.132027500E-1,-2.274520111E0,2.203567657E0,9.305848389E0,9.829952512E0
4.231447500E-1,-2.210603027E0,2.245480499E0,9.253607025E0,9.775387020E0
4.330857500E-1,-2.136956177E0,2.256856842E0,9.176816711E0,9.688856974E0
4.430277500E-1,-2.078128510E0,2.284848633E0,9.081015930E0,9.591871647E0
4.529687500E-1,-2.061063995E0,2.303110657E0,9.017398224E0,9.532354075E0
4.629107500E-1,-2.039059753E0,2.243534546E0,8.986562347E0,9.484171802E0
4.728517500E-1,-2.053280182E0,2.152074738E0,8.926088104E0,9.408636141E0
4.827937500E-1,-2.073338470E0,2.127076721E0,9.010811920E0,9.487777361E0
4.927347500E-1,-1.986968079E0,2.088007965E0,9.127718811E0,9.571994050E0
5.026757500E-1,-1.847158813E0,2.031126251E0,9.254205780E0,9.652864557E0
5.126177500E-1,-1.724713440E0,2.055974579E0,9.300908661E0,9.680318685E0
5.225587500E-1,-1.653611298E0,2.024839325E0,9.195527802E0,9.559923439E0
5.325007500E-1,-1.677561493E0,2.019151154E0,8.914262695E0,9.292753270E0
5.424417500E-1,-1.600771179E0,2.283351746E0,8.812474365E0,9.243152493E0
5.523837500E-1,-1.604962463E0,2.188149719E0,8.850046234E0,9.256739277E0
5.623253750E-1,-1.544488220E0,2.162253571E0,8.772657166E0,9.166258676E0
5.722673750E-1,-1.563648376E0,2.171683960E0,8.638985138E0,9.043963273E0
5.822083750E-1,-1.515149231E0,2.278711395E0,8.612939301E0,9.037196811E0
5.921503750E-1,-1.466799774E0,2.075434113E0,8.735085297E0,9.097287699E0
6.020913750E-1,-1.285826111E0,1.927990723E0,8.828790436E0,9.127871470E0
6.120333750E-1,-1.225651245E0,1.863175507E0,8.963510284E0,9.236783020E0
6.219743750E-1,-1.197509766E0,1.735491028E0,8.979676666E0,9.223911956E0
6.319163750E-1,-1.126407623E0,1.685944061E0,9.017996979E0,9.243131018E0
6.418573750E-1,-1.028960266E0,1.676363983E0,9.122030640E0,9.331687866E0
6.517993750E-1,-8.993298340E-1,1.745969238E0,9.103169861E0,9.312620697E0
6.617403750E-1,-9.057664490E-1,1.783092041E0,8.946146393E0,9.166971439E0
6.716813750E-1,-9.907896423E-1,1.835632782E0,8.813522186E0,9.057007516E0
6.816233750E-1,-9.970765686E-1,1.833387451E0,8.847202148E0,9.090019642E0
6.915643750E-1,-8.792715454E-1,1.824855194E0,8.966504059E0,9.192464847E0
7.015063750E-1,-8.828640747E-1,1.743574219E0,9.126221924E0,9.333135949E0
7.114473750E-1,-8.999285889E-1,1.650767212E0,9.335636444E0,9.523077846E0
7.213893750E-1,-8.930429077E-1,1.494492188E0,9.601633301E0,9.758196277E0
7.313303750E-1,-7.878117371E-1,1.471440125E0,9.849517822E0,9.989934169E0
7.412723750E-1,-6.125262451E-1,1.491498413E0,1.007629623E1,1.020448439E1
7.512133750E-1,-4.806504822E-1,1.585951996E0,1.035456757E1,1.048634055E1
7.611553750E-1,-4.174818420E-1,1.747615814E0,1.053239777E1,1.068456152E1
7.710963750E-1,-5.004093933E-1,1.823058929E0,1.055739578E1,1.072532326E1
7.810383750E-1,-5.653742981E-1,1.927990723E0,1.049153275E1,1.068218403E1
7.909793750E-1,-5.475613403E-1,1.944157104E0,1.049961594E1,1.069212351E1
8.009213750E-1,-5.206173706E-1,1.908381500E0,1.050680099E1,1.069139044E1
8.108623750E-1,-5.748046875E-1,1.882335663E0,1.045650558E1,1.064011734E1
8.208043750E-1,-5.468128967E-1,1.825753326E0,1.034663406E1,1.052070416E1
8.307453750E-1,-4.644841003E-1,1.699266357E0,1.015099091E1,1.030271168E1
8.406873750E-1,-4.423301697E-1,1.581760712E0,9.833052063E0,9.969279603E0
8.506283750E-1,-3.662882996E-1,1.618135071E0,9.649234314E0,9.790824841E0
8.605693750E-1,-1.399589539E-1,1.597478027E0,9.509125671E0,9.643391291E0
8.705113750E-1,7.110214233E-2,1.498384094E0,9.399403839E0,9.518350852E0
8.804523750E-1,2.547702026E-1,1.519789581E0,9.203760681E0,9.331874351E0
8.903943750E-1,4.472698975E-1,1.501677246E0,8.866362305E0,9.003747299E0
9.003353750E-1,5.638774109E-1,1.411564636E0,8.446934509E0,8.582608873E0
9.102773750E-1,7.282356262E-1,1.251397705E0,7.930358734E0,8.061446086E0
9.202183750E-1,7.710466003E-1,1.019529877E0,7.458539886E0,7.567282951E0
9.301603750E-1,7.274871826E-1,9.026229858E-1,7.223528595E0,7.315964135E0
9.401013750E-1,7.144642639E-1,8.598120117E-1,7.218139801E0,7.304195922E0
9.500433750E-1,7.767347717E-1,9.351054382E-1,7.291487274E0,7.392125929E0
9.599843750E-1,8.605604553E-1,1.017883301E0,7.476053467E0,7.593946678E0
9.699263750E-1,9.972262573E-1,1.106499023E0,7.795788574E0,7.936820509E0
9.798673750E-1,1.393601990E0,1.298849030E0,8.247549133E0,8.464703303E0
9.898093750E-1,1.899250488E0,1.399888916E0,8.686885529E0,9.001601057E0
9.997503750E-1,2.256707153E0,1.385369110E0,9.005123749E0,9.386385272E0
1.009692375E0,2.287842407E0,1.234931946E0,8.963659973E0,9.333085230E0
1.019633375E0,2.139800262E0,1.204844513E0,8.843609619E0,9.178225676E0
1.029574375E0,2.181862793E0,1.234931946E0,8.402177582E0,8.768247845E0
1.039516375E0,2.433190155E0,1.091979218E0,7.911048889E0,8.348504505E0
1.049457375E0,2.610870667E0,6.620732117E-1,7.479795685E0,7.949989312E0
1.059399375E0,2.725232849E0,2.387535095E-1,7.195836182E0,7.698308624E0
1.069340375E0,2.728226624E0,1.556762695E-2,6.869065704E0,7.391043669E0
1.079282375E0,2.682272186E0,-7.544311523E-2,6.698420563E0,7.215893138E0
1.089223375E0,2.837798767E0,-2.682421875E-1,6.669680328E0,7.253253849E0
1.099165375E0,2.985990601E0,-6.902146912E-1,6.508315887E0,7.193796764E0
1.109106375E0,2.824626160E0,-9.041198730E-1,6.609355774E0,7.244275632E0
1.119048375E0,1.815724182E0,-1.043480072E0,6.532565460E0,6.860037643E0
1.128989375E0,-4.834945679E-1,-1.035247192E0,6.348448334E0,6.450449596E0
1.138931375E0,-1.360670471E-1,-9.831555176E-1,6.946754150E0,7.017300210E0
1.148872375E0,2.172432404E0,-1.605261841E0,6.735992432E0,7.257404644E0
1.158814375E0,3.420836334E0,-2.137105865E0,5.963598633E0,7.199572998E0
1.168755375E0,3.803740082E0,-2.323917389E0,5.833818512E0,7.341830090E0
1.178697375E0,4.032015381E0,-2.196232910E0,6.664740601E0,8.093167137E0
1.188638375E0,4.369264069E0,-1.962119751E0,8.395740967E0,9.665859962E0
1.198579375E0,4.343816986E0,-1.873504028E0,9.559870148E0,1.066629648E1
1.208521375E0,4.938380585E0,-1.957329712E0,1.046279251E1,1.173408580E1
1.218462375E0,5.803431702E0,-2.096689911E0,1.094224548E1,1.256219186E1
1.228404375E0,6.446195068E0,-1.860780487E0,1.083117645E1,1.274089158E1
1.238345375E0,7.325017548E0,-1.625469818E0,1.037896683E1,1.280706784E1
1.248287375E0,8.180488586E0,-1.463207245E0,9.645791473E0,1.273195437E1
1.258228375E0,8.982221375E0,-1.014739838E0,8.377928009E0,1.232475864E1
1.268170375E0,9.420210571E0,-4.962181091E-1,7.246880035E0,1.189553991E1
1.278111375E0,1.000309845E1,-1.157093811E-1,6.850504303E0,1.212455263E1
1.288053375E0,1.037178177E1,2.454895020E-1,6.987170105E0,1.250818405E1
1.297994375E0,1.066711761E1,3.818559265E-1,7.084467773E0,1.281104585E1
1.307936375E0,1.093446167E1,1.713935852E-1,6.841822357E0,1.289970391E1
1.317877375E0,1.123967697E1,2.794688416E-1,7.133266296E0,1.331510155E1
1.327819375E0,1.154534134E1,2.520758057E-1,7.058871002E0,1.353462628E1
1.337760375E0,1.201042419E1,1.827699280E-1,6.614295502E0,1.371249792E1
1.347701375E0,1.170805298E1,2.381547546E-1,5.982309723E0,1.315002859E1
1.357643375E0,1.199231186E1,2.019300842E-1,5.654042358E0,1.325988365E1
1.367584375E0,1.183184555E1,2.736309814E-1,4.970114594E0,1.283625655E1
1.377526375E0,1.183439026E1,2.942880249E-1,4.580175476E0,1.269320313E1
1.387467375E0,1.179023209E1,3.519181824E-1,4.530628510E0,1.263566436E1
1.397409375E0,1.163605270E1,1.766326904E-1,4.545148315E0,1.249349010E1
1.407350375E0,1.147708328E1,-4.834945679E-2,4.681664429E0,1.239531202E1
1.417292375E0,1.128608047E1,-1.706451416E-1,4.893473969E0,1.230247210E1
1.427233375E0,1.104942261E1,-4.384382629E-1,5.059329071E0,1.216054188E1
1.437175375E0,1.080932190E1,-5.876779175E-1,5.275329895E0,1.204225522E1
1.447116375E0,1.054856415E1,-5.987548828E-1,5.243595886E0,1.179516896E1
1.457058375E0,1.017239639E1,-7.394622803E-1,5.103487244E0,1.140482507E1
1.466999375E0,9.819729767E0,-1.029708710E0,4.920268250E0,1.103161060E1
1.476941375E0,9.427245941E0,-1.503473511E0,4.670886841E0,1.062782116E1
1.486882375E0,9.656569061E0,-9.346563721E-1,4.644541626E0,1.075614594E1
1.496823375E0,9.813143463E0,-9.291178894E-1,4.680317230E0,1.091175577E1
1.506765375E0,9.361831970E0,-1.476529541E0,4.211791534E0,1.037126922E1
1.516706375E0,9.129664764E0,-1.801653442E0,3.993844757E0,1.012657542E1
1.526648375E0,9.322164459E0,-1.535207520E0,4.227508850E0,1.035043204E1
1.536589375E0,9.409432983E0,-1.561552734E0,4.176764374E0,1.041255188E1
1.546531375E0,9.166787567E0,-1.883682861E0,3.689228210E0,1.005925744E1
1.556472375E0,9.131610718E0,-1.882784729E0,3.528761902E0,9.969119981E0
1.566414500E0,9.257199554E0,-1.765428772E0,3.664529572E0,1.011144200E1
1.576355500E0,9.480834503E0,-1.770667877E0,3.715872803E0,1.033582112E1
1.586297500E0,9.331744537E0,-1.895208893E0,3.407813416E0,1.011367713E1
1.596238500E0,9.481882324E0,-2.139949951E0,3.300336914E0,1.026536419E1
1.606180500E0,9.420060883E0,-2.037113800E0,3.200793915E0,1.015541537E1
1.616121500E0,9.389524384E0,-2.144739990E0,3.149450684E0,1.013321851E1
1.626062500E0,9.454489288E0,-2.089355164E0,3.340303802E0,1.024257791E1
1.636004500E0,9.349407806E0,-2.113754425E0,3.509751434E0,1.020772939E1
1.645945500E0,9.282197571E0,-2.358345795E0,3.580105133E0,1.022438944E1
1.655887500E0,9.218280487E0,-2.489173737E0,3.715872803E0,1.024599393E1
1.665828500E0,9.239386597E0,-2.504292297E0,3.912264404E0,1.034135182E1
1.675770500E0,9.106463013E0,-2.594255219E0,3.830085297E0,1.021407764E1
1.685711500E0,8.990454254E0,-2.620450745E0,3.860023041E0,1.012890950E1
1.695653500E0,8.804989929E0,-2.595452728E0,3.633244629E0,9.872420628E0
1.705594500E0,8.703950043E0,-2.694846039E0,3.453767853E0,9.744201040E0
1.715536500E0,8.687184906E0,-2.727478180E0,3.521277466E0,9.762464535E0
1.725477500E0,8.715476074E0,-2.735261993E0,3.596720581E0,9.817208377E0
1.735419500E0,8.788224792E0,-2.843636627E0,3.660637665E0,9.935765314E0
1.745360500E0,8.812773743E0,-2.858156433E0,3.717669067E0,9.982740232E0
1.755302500E0,8.929830322E0,-2.781216431E0,3.752396851E0,1.007757493E1
1.765243500E0,9.070986786E0,-2.722837830E0,3.787274323E0,1.020000460E1
1.775184500E0,9.142088928E0,-2.684667206E0,3.704646149E0,1.022299521E1
1.785126500E0,9.085506592E0,-2.730172577E0,3.429218903E0,1.008760698E1
1.795067500E0,8.974587250E0,-2.761158142E0,3.215762787E0,9.925136820E0
1.805009500E0,9.037157135E0,-2.761008453E0,3.187471619E0,9.972630149E0
1.814950500E0,8.963510284E0,-2.807411957E0,3.154689789E0,9.908488592E0
1.824892500E0,9.017398224E0,-2.933749237E0,3.234623566E0,1.001913893E1
1.834833500E0,9.113797760E0,-3.017275543E0,3.486849060E0,1.021388162E1
1.844775500E0,9.139244843E0,-2.862048340E0,3.613485718E0,1.023593650E1
1.854716500E0,9.145082703E0,-2.755619659E0,3.759881287E0,1.026463271E1
1.864658500E0,9.077722778E0,-2.788700867E0,3.686683502E0,1.018692979E1
1.874599500E0,9.089697876E0,-2.736459503E0,3.591182098E0,1.014925647E1
1.884541500E0,9.096433868E0,-2.747835846E0,3.456761627E0,1.011162261E1
1.894482500E0,9.118288422E0,-2.779719543E0,3.299438782E0,1.008743380E1
1.904423500E0,9.149573364E0,-2.789000244E0,3.279230804E0,1.011170459E1
1.914365500E0,9.104816437E0,-2.727927246E0,3.367397461E0,1.008358245E1
1.924306500E0,9.129365387E0,-2.769690399E0,3.469036102E0,1.015138950E1
1.934248500E0,9.094936981E0,-2.918480988E0,3.407364349E0,1.014127910E1
1.944189500E0,8.995992737E0,-3.237317963E0,3.366499329E0,1.013614476E1
1.954131500E0,8.821755066E0,-3.312312012E0,3.346590729E0,9.999722137E0
1.964072500E0,8.876391449E0,-3.199746094E0,3.286266174E0,9.991408589E0
1.974014500E0,8.846154327E0,-3.213667145E0,3.084934845E0,9.904490189E0
1.983955500E0,9.049730988E0,-3.173550568E0,3.197949829E0,1.010920062E1
1.993897500E0,9.098828888E0,-3.028651886E0,3.265160065E0,1.013028576E1
2.003838500E0,9.141639862E0,-2.916235657E0,3.208577728E0,1.011775572E1
2.013779500E0,9.206604767E0,-2.877765656E0,3.316652985E0,1.020016145E1
2.023721500E0,9.135053558E0,-2.915337524E0,3.422482910E0,1.018144320E1
2.033662500E0,9.057664490E0,-2.970273285E0,3.401526489E0,1.012097781E1
2.043604500E0,8.949439545E0,-3.000959473E0,3.398083649E0,1.003220805E1
2.053545500E0,8.847202148E0,-2.888692932E0,3.341351624E0,9.888486405E0
2.063487500E0,8.678952026E0,-3.014132080E0,3.081342316E0,9.690400969E0
2.073428500E0,8.736432495E0,-3.293900299E0,3.094065857E0,9.836070122E0
2.083370500E0,8.764723663E0,-3.213218079E0,3.100801849E0,9.836672376E0
2.093311500E0,8.697962494E0,-3.063080292E0,2.966980133E0,9.687103980E0
2.103253500E0,8.596922607E0,-3.255280609E0,2.933749237E0,9.649394528E0
2.113194500E0,8.569379883E0,-3.214116211E0,3.252286835E0,9.712990489E0
2.123135500E0,8.671317902E0,-3.070115662E0,3.331621857E0,9.783510031E0
2.133077500E0,8.672216034E0,-3.068020020E0,3.285368042E0,9.767994725E0
2.143018500E0,8.612939301E0,-3.127446442E0,3.241509247E0,9.719620715E0
2.152960500E0,8.555608521E0,-3.139271851E0,3.001258850E0,9.594843386E0
2.162901500E0,8.524473267E0,-3.209775238E0,2.968776398E0,9.580341061E0
2.172843500E0,8.484057312E0,-3.298241272E0,2.970123596E0,9.574928623E0
2.182784500E0,8.533304901E0,-3.330424347E0,3.049308929E0,9.654392980E0
2.192726500E0,8.570128326E0,-3.320694580E0,3.098107452E0,9.699091803E0
2.202667500E0,8.587492218E0,-3.305725708E0,3.121009827E0,9.716663388E0
2.212609500E0,8.611891479E0,-3.178639984E0,3.347039795E0,9.770931501E0
2.222550500E0,8.640182648E0,-2.988235931E0,3.452570343E0,9.772540721E0
2.232491500E0,8.559350739E0,-2.923720093E0,3.355871429E0,9.647408838E0
2.242433500E0,8.501421204E0,-3.126997375E0,3.352578278E0,9.658781299E0
2.252374500E0,8.562643890E0,-3.269201660E0,3.487298126E0,9.806518144E0
2.262316500E0,8.622519379E0,-3.192411346E0,3.563339996E0,9.860868246E0
2.272257500E0,8.729696503E0,-3.086282043E0,3.605701904E0,9.936489526E0
2.282199500E0,8.800499268E0,-3.039279785E0,3.723057861E0,1.002732112E1
2.292140500E0,8.828191681E0,-2.966531067E0,3.673510895E0,1.001159114E1
2.302082500E0,8.771759033E0,-3.035836945E0,3.579057312E0,9.948352312E0
2.312023500E0,8.645870819E0,-3.186723175E0,3.586691437E0,9.887903836E0
2.321965500E0,8.541088715E0,-3.227139130E0,3.665876770E0,9.838865579E0
2.331906500E0,8.479566650E0,-3.317850494E0,3.805236969E0,9.868688407E0
2.341848500E0,8.521928558E0,-3.342249756E0,4.130959625E0,1.004284458E1
2.351789500E0,8.655750275E0,-3.167712708E0,4.386627960E0,1.020778730E1
2.361730500E0,8.657845917E0,-3.163671112E0,4.409230957E0,1.021804426E1
2.371672500E0,8.550070038E0,-3.222947845E0,4.306394806E0,1.010129332E1
2.381613500E0,8.365653534E0,-3.239862671E0,4.175866241E0,9.895389231E0
2.391555500E0,8.275091858E0,-3.237018585E0,4.067491608E0,9.772406180E0
2.401496500E0,8.248447266E0,-3.171155548E0,3.978576508E0,9.691345667E0
2.411438500E0,8.261919250E0,-3.012036438E0,3.963308258E0,9.645697774E0
2.421379500E0,8.198900299E0,-2.989583130E0,3.961212616E0,9.583881197E0
2.431321500E0,8.120313721E0,-3.099454651E0,3.920796661E0,9.535132957E0
2.441262500E0,8.115823059E0,-3.088826752E0,3.898043976E0,9.518517819E0
2.451204500E0,7.993527374E0,-3.168012085E0,3.944746857E0,9.460116713E0
2.461145500E0,7.908204803E0,-3.435356140E0,3.980971527E0,9.496815746E0
2.471086500E0,7.954608307E0,-3.567381592E0,4.184248810E0,9.670053921E0
2.481028500E0,7.941435699E0,-3.642675018E0,4.369862823E0,9.768888542E0
2.490969500E0,7.970774689E0,-3.677702179E0,4.543202362E0,9.884302209E0
2.500911500E0,8.008795624E0,-3.585493927E0,4.488565979E0,9.856155366E0
2.510852500E0,8.117619324E0,-3.438349915E0,4.282145233E0,9.800753105E0
2.520794500E0,8.307723999E0,-2.984793091E0,4.723427582E0,1.001189472E1
2.530735500E0,8.367300110E0,-3.058889008E0,4.873565369E0,1.015480933E1
2.540677500E0,8.276439056E0,-3.124752045E0,4.993316345E0,1.015857898E1
2.550618500E0,8.583300934E0,-3.284769287E0,4.987628174E0,1.045653858E1
2.560560500E0,8.738228760E0,-3.424578552E0,4.875361633E0,1.057608298E1
2.570501000E0,8.459658051E0,-3.246149597E0,4.572840729E0,1.014958984E1
2.580442000E0,8.134234772E0,-3.301235046E0,4.181704102E0,9.723712118E0
2.590384000E0,7.999814301E0,-3.360062714E0,3.918551331E0,9.520614204E0
2.600325000E0,7.989336090E0,-3.311413879E0,3.890858917E0,9.483339926E0
2.610267000E0,8.060138855E0,-3.206631775E0,4.097728729E0,9.593732665E0
2.620208000E0,8.143665161E0,-3.140169983E0,4.412224731E0,9.779963030E0
2.630150000E0,8.182584229E0,-3.034789124E0,4.423451385E0,9.784250193E0
2.640091000E0,8.217461700E0,-2.969375153E0,4.295168152E0,9.736135529E0
2.650033000E0,8.153394928E0,-2.984044647E0,4.218228149E0,9.652762300E0
2.659974000E0,8.124954071E0,-2.968327332E0,4.155358887E0,9.596502138E0
2.669915000E0,8.027656403E0,-2.950065308E0,4.043242035E0,9.460124671E0
2.679857000E0,7.991431732E0,-2.930007019E0,3.966751099E0,9.390582332E0
2.689798000E0,8.031248932E0,-2.957998810E0,4.002077637E0,9.448139593E0
2.699740000E0,8.093369751E0,-3.022963715E0,4.028123474E0,9.532403803E0
2.709681000E0,8.046517181E0,-3.048710175E0,3.985312500E0,9.482815415E0
2.719623000E0,8.074958038E0,-3.097808075E0,3.919898529E0,9.495628819E0
2.729564000E0,8.108787689E0,-3.151246948E0,3.901486816E0,9.534379607E0
2.739506000E0,8.140072632E0,-3.160976715E0,3.927233276E0,9.574743728E0
2.749447000E0,8.234226837E0,-3.158731384E0,3.956422577E0,9.666093067E0
2.759389000E0,8.397986298E0,-3.173400879E0,4.022734680E0,9.837633928E0
2.769330000E0,8.566086731E0,-3.122806091E0,4.221521301E0,1.004743758E1
2.779271000E0,8.637787628E0,-3.022814026E0,4.310286713E0,1.011569826E1
2.789213000E0,8.683742065E0,-2.996319122E0,4.243974609E0,1.011912175E1
2.799154000E0,8.729995880E0,-2.997516632E0,4.121978302E0,1.010883965E1
2.809096000E0,8.829838257E0,-3.017574921E0,4.046086121E0,1.017067426E1
2.819037000E0,8.858728180E0,-3.029849396E0,4.039050751E0,1.019661627E1
2.828979000E0,8.790769501E0,-3.107687531E0,3.966152344E0,1.013240912E1
2.838920000E0,8.718020782E0,-3.204536133E0,3.867657166E0,1.006139703E1
2.848862000E0,8.647068329E0,-3.218756561E0,3.826941833E0,9.988877228E0
2.858803000E0,8.629854126E0,-3.226390686E0,3.810625763E0,9.970197982E0
2.868745000E0,8.730145569E0,-3.261268158E0,3.870800629E0,1.009130364E1
2.878686000E0,8.841813354E0,-3.331172791E0,4.113146667E0,1.030496730E1
2.888627000E0,9.037157135E0,-3.267555084E0,4.424798584E0,1.057950697E1
2.898569000E0,9.084608459E0,-3.196602631E0,4.438719635E0,1.060427325E1
2.908510000E0,9.062604218E0,-3.245401154E0,4.310137024E0,1.054707092E1
2.918452000E0,8.887468414E0,-3.272644501E0,4.087250519E0,1.031517880E1
2.928393000E0,8.726103973E0,-3.298091583E0,3.793561249E0,1.007042231E1
2.938335000E0,8.613088989E0,-3.282823334E0,3.569177856E0,9.884394850E0
2.948276000E0,8.554860077E0,-3.282224579E0,3.452570343E0,9.791775687E0
2.958218000E0,8.591982880E0,-3.253634033E0,3.412902832E0,9.800827004E0
2.968159000E0,8.677006073E0,-3.209326172E0,3.435954895E0,9.868940921E0
2.978100000E0,8.777297516E0,-3.194357300E0,3.414100342E0,9.944895745E0
2.988042000E0,8.816066895E0,-3.162323914E0,3.413501587E0,9.968717124E0
2.997983000E0,8.727151794E0,-3.095113678E0,3.329226837E0,9.840053783E0
3.007925000E0,8.630303192E0,-3.110082550E0,3.172951813E0,9.706820791E0
3.017866000E0,8.556656342E0,-3.161725159E0,3.087629242E0,9.630489503E0
3.027808000E0,8.499624939E0,-3.323838043E0,3.170257416E0,9.661369236E0
3.037749000E0,8.403375092E0,-3.359463959E0,3.312461700E0,9.637173524E0
3.047691000E0,8.300389252E0,-3.318449249E0,3.358416138E0,9.549215994E0
3.057632000E0,8.231981506E0,-3.224594421E0,3.325634308E0,9.445812419E0
3.067574000E0,8.198451233E0,-3.162922668E0,3.314257965E0,9.391644600E0
3.077515000E0,8.132588196E0,-3.150348816E0,3.297792206E0,9.324115071E0
3.087456000E0,8.055947571E0,-3.198997650E0,3.245251465E0,9.255459702E0
3.097398000E0,8.029452667E0,-3.221450958E0,3.250789948E0,9.242158389E0
3.107339000E0,8.140372009E0,-3.252885590E0,3.289559326E0,9.363125636E0
3.117281000E0,8.262817383E0,-3.196303253E0,3.309318237E0,9.457382978E0
3.127222000E0,8.443791046E0,-3.200344849E0,3.339405670E0,9.627639618E0
3.137164000E0,8.531358948E0,-3.240162048E0,3.437152405E0,9.751756367E0
3.147105000E0,8.570727081E0,-3.174897766E0,3.523223419E0,9.795429638E0
3.157047000E0,8.731941833E0,-3.057092743E0,3.601211243E0,9.927806738E0
3.166988000E0,8.796457672E0,-3.006348267E0,3.643273773E0,9.984449973E0
3.176929000E0,8.824748840E0,-2.998115387E0,3.676205292E0,1.001895071E1
3.186871000E0,8.817264404E0,-2.965333557E0,3.677851868E0,1.000319694E1
3.196812000E0,8.853788452E0,-2.938239899E0,3.655847626E0,1.001938349E1
3.206754000E0,8.898246002E0,-2.957699432E0,3.665577393E0,1.006793055E1
3.216695000E0,8.892408142E0,-3.016527100E0,3.727997589E0,1.010308489E1
3.226637000E0,8.870852966E0,-3.055296478E0,3.750301208E0,1.010404019E1
3.236578000E0,8.887019348E0,-3.055895233E0,3.708088989E0,1.010284774E1
3.246520000E0,8.941655731E0,-3.025957489E0,3.738176422E0,1.015300886E1
3.256461000E0,9.024134216E0,-3.018772430E0,3.861370239E0,1.026928262E1
3.266402000E0,9.056167603E0,-2.951562195E0,3.904181213E0,1.029410132E1
3.276344000E0,9.076525269E0,-2.917433167E0,3.851341095E0,1.028239055E1
3.286285000E0,9.061107330E0,-2.876867523E0,3.792962494E0,1.023555554E1
3.296227000E0,8.995992737E0,-2.932851105E0,3.705394592E0,1.016166571E1
3.306168000E0,8.920250244E0,-3.012635193E0,3.650608521E0,1.009820666E1
3.316110000E0,8.905730438E0,-3.066672821E0,3.581751709E0,1.007697684E1
3.326051000E0,8.903784485E0,-3.117716675E0,3.548820190E0,1.007926883E1
3.335993000E0,8.830736389E0,-3.128344574E0,3.523223419E0,1.000907329E1
3.345934000E0,8.765621796E0,-3.120560760E0,3.455414429E0,9.925417563E0
3.355875000E0,8.779243469E0,-3.157234497E0,3.378474426E0,9.922566957E0
3.365817000E0,8.697663116E0,-3.175047455E0,3.349434814E0,9.846267496E0
3.375758000E0,8.647068329E0,-3.150648193E0,3.315455475E0,9.782158235E0
3.385700000E0,8.670270081E0,-3.128643951E0,3.317401428E0,9.796282381E0
3.395641000E0,8.606352997E0,-3.106190643E0,3.269051971E0,9.716194369E0
3.405583000E0,8.608298950E0,-3.122057648E0,3.246898041E0,9.715575210E0
3.415524000E0,8.583001556E0,-3.154689789E0,3.274590454E0,9.713028674E0
3.425466000E0,8.554261322E0,-3.134631500E0,3.270548859E0,9.679761942E0
3.435407000E0,8.544531555E0,-3.149001617E0,3.256927185E0,9.671235980E0
3.445348000E0,8.612789612E0,-3.185226288E0,3.246898041E0,9.740028660E0
3.455290000E0,8.648714905E0,-3.224594421E0,3.271446991E0,9.792887424E0
3.465231000E0,8.595276031E0,-3.312312012E0,3.290906525E0,9.781628018E0
3.475173000E0,8.572223969E0,-3.352428589E0,3.333118744E0,9.789355534E0
3.485114000E0,8.587492218E0,-3.440894623E0,3.397784271E0,9.855440952E0
3.495056000E0,8.578211517E0,-3.506458282E0,3.505709839E0,9.908126160E0
3.504997000E0,8.560248871E0,-3.470682678E0,3.502566376E0,9.878839517E0
3.514939000E0,8.519683228E0,-3.381917267E0,3.454965363E0,9.795874252E0
3.524880000E0,8.539891205E0,-3.325334930E0,3.429218903E0,9.785046575E0
3.534821000E0,8.593330078E0,-3.301384735E0,3.489094391E0,9.844706327E0
3.544763000E0,8.586893463E0,-3.326233063E0,3.520529022E0,9.858635318E0
3.554704000E0,8.624764709E0,-3.373983765E0,3.516637115E0,9.906415565E0
3.564646542E0,8.622519379E0,-3.404520264E0,3.535348206E0,9.921556612E0
3.574587542E0,8.575217743E0,-3.405418396E0,3.521127777E0,9.875706284E0
3.584529542E0,8.575367432E0,-3.438948669E0,3.458857269E0,9.865444143E0
3.594470542E0,8.575816498E0,-3.465443573E0,3.422782288E0,9.862523326E0
3.604412542E0,8.655750275E0,-3.520678711E0,3.427722015E0,9.953214035E0
3.614353542E0,8.757089539E0,-3.557053070E0,3.439846802E0,1.005841885E1
3.624294542E0,8.860973511E0,-3.569626923E0,3.457809448E0,1.015950462E1
3.634236542E0,8.914262695E0,-3.556454315E0,3.478316803E0,1.020838550E1
3.644177542E0,8.920998688E0,-3.526067505E0,3.463647308E0,1.019873631E1
3.654119542E0,8.870703278E0,-3.518134003E0,3.430266724E0,1.014067913E1
3.664060542E0,8.854686584E0,-3.485202484E0,3.417842560E0,1.011107109E1
3.674002542E0,8.750203857E0,-3.436254272E0,3.364104309E0,9.984543494E0
3.683943542E0,8.605454865E0,-3.436553650E0,3.236719208E0,9.815299570E0
3.693885542E0,8.476273499E0,-3.434907074E0,3.100502472E0,9.657065528E0
3.703826542E0,8.396938477E0,-3.416046295E0,2.998265076E0,9.548169538E0
3.713767542E0,8.382867737E0,-3.412453766E0,2.957699432E0,9.521832709E0
3.723709542E0,8.378377075E0,-3.405717773E0,2.981350250E0,9.522844390E0
3.733650542E0,8.401878204E0,-3.396886139E0,3.023412781E0,9.553607572E0
3.743592542E0,8.456065521E0,-3.380121002E0,3.064128113E0,9.608285132E0
3.753533542E0,8.507408752E0,-3.392844543E0,3.139122162E0,9.682018680E0
3.763475542E0,8.510851593E0,-3.417992249E0,3.211122437E0,9.717436552E0
3.773416542E0,8.510701904E0,-3.437302094E0,3.268303528E0,9.743146337E0
3.783358542E0,8.518934784E0,-3.447929993E0,3.348536682E0,9.781266227E0
3.793299542E0,8.500672760E0,-3.498973846E0,3.422931976E0,9.809216007E0
3.803240542E0,8.472082214E0,-3.526815948E0,3.432661743E0,9.797845397E0
3.813182542E0,8.477471008E0,-3.507955170E0,3.446882172E0,9.800727569E0
3.823123542E0,8.474028168E0,-3.515439606E0,3.467389526E0,9.807663286E0
3.833065542E0,8.506211243E0,-3.516786804E0,3.491339722E0,9.844433563E0
3.843006542E0,8.508606262E0,-3.484753418E0,3.494782562E0,9.836330213E0
3.852948542E0,8.527317352E0,-3.458857269E0,3.476071472E0,9.836763071E0
3.862889542E0,8.576415253E0,-3.461401978E0,3.466042328E0,9.876722718E0
3.872830542E0,8.669072571E0,-3.444936218E0,3.460952911E0,9.949804010E0
3.882772542E0,8.732989655E0,-3.435805206E0,3.437002716E0,9.994140953E0
3.892713542E0,8.764274597E0,-3.450774078E0,3.372187500E0,1.000459892E1
3.902655542E0,8.794811096E0,-3.527564392E0,3.377426605E0,1.005979241E1
3.912596542E0,8.779093781E0,-3.589086456E0,3.425476685E0,1.008404283E1
3.922538542E0,8.725804596E0,-3.565735016E0,3.390000458E0,1.001729680E1
3.932479542E0,8.673263855E0,-3.528911591E0,3.358715515E0,9.947848653E0
3.942421542E0,8.636739807E0,-3.544928284E0,3.357817383E0,9.921427751E0
3.952362542E0,8.554560699E0,-3.587439880E0,3.392694855E0,9.877277562E0
3.962303542E0,8.476722565E0,-3.599864044E0,3.373235321E0,9.807780743E0
3.972245542E0,8.454269257E0,-3.597918091E0,3.311862946E0,9.766684157E0
3.982186542E0,8.491541748E0,-3.616778870E0,3.263363800E0,9.789632983E0
3.992128542E0,8.560548248E0,-3.607647858E0,3.261866913E0,9.845703892E0
4.002069542E0,8.595874786E0,-3.615880737E0,3.231629791E0,9.869502924E0
4.012011542E0,8.643775177E0,-3.624263306E0,3.178340607E0,9.897069406E0
4.021952542E0,8.658744049E0,-3.674259338E0,3.135829010E0,9.915011537E0
4.031893542E0,8.632548523E0,-3.725752258E0,3.154091034E0,9.917177731E0
4.041835542E0,8.624165955E0,-3.703298950E0,3.085683289E0,9.879883749E0
4.051776542E0,8.637937317E0,-3.636238403E0,2.998714142E0,9.840146204E0
4.061718542E0,8.671617279E0,-3.607348480E0,2.958747253E0,9.847034813E0
4.071659542E0,8.706045685E0,-3.571273499E0,2.911445618E0,9.850164539E0
4.081601542E0,8.722810822E0,-3.576213226E0,2.863545227E0,9.852746873E0
4.091542542E0,8.789422302E0,-3.638783112E0,2.923869781E0,9.952070209E0
4.101484542E0,8.772806854E0,-3.722309418E0,3.017425232E0,9.996128377E0
4.111425542E0,8.709488525E0,-3.792513428E0,3.107537842E0,9.994755620E0
4.121366542E0,8.736731873E0,-3.816912689E0,3.081641693E0,1.001977155E1
4.131308542E0,8.719068604E0,-3.812122650E0,3.077600098E0,1.000130285E1
4.141249542E0,8.665779419E0,-3.799399109E0,3.084036713E0,9.952007284E0
4.151191542E0,8.632099457E0,-3.843108215E0,3.084635468E0,9.939698072E0
4.161132542E0,8.547824707E0,-3.900888062E0,3.067421265E0,9.883891344E0
4.171074542E0,8.449928284E0,-3.951632538E0,3.041375427E0,9.811557073E0
4.181015542E0,8.369096375E0,-3.971391449E0,3.044219513E0,9.750948498E0
4.190956542E0,8.351882172E0,-3.958218842E0,3.056793365E0,9.734753098E0
4.200898542E0,8.428971863E0,-3.904181213E0,3.088078308E0,9.789097264E0
4.210839542E0,8.534951477E0,-3.876638489E0,3.115621033E0,9.878300315E0
4.220781542E0,8.691825256E0,-3.930376740E0,3.128344574E0,1.003903518E1
4.230722542E0,8.782237244E0,-3.929179230E0,3.155438232E0,1.012536078E1
4.240664542E0,8.777896271E0,-3.840563507E0,3.158432007E0,1.008846290E1
4.250605542E0,8.765023041E0,-3.770658875E0,3.094963989E0,1.003106671E1
4.260547542E0,8.756341095E0,-3.751349030E0,2.979853363E0,9.981265199E0
4.270488542E0,8.702303467E0,-3.722010040E0,2.928659821E0,9.907597727E0
4.280429542E0,8.658594360E0,-3.703748016E0,2.861898651E0,9.842736894E0
4.290371542E0,8.624465332E0,-3.721560974E0,2.801424408E0,9.802009848E0
4.300312542E0,8.559949493E0,-3.767066345E0,2.767445068E0,9.753064974E0
4.310254542E0,8.514893188E0,-3.886967010E0,2.811303864E0,9.773195381E0
4.320195542E0,8.459957428E0,-3.936663666E0,2.897674255E0,9.770604720E0
4.330137542E0,8.424930267E0,-3.925886078E0,2.959346008E0,9.754473861E0
4.340078542E0,8.376880188E0,-3.872147827E0,3.000510406E0,9.704056532E0
4.350019542E0,8.365354156E0,-3.833677826E0,3.017874298E0,9.684203690E0
4.359961542E0,8.391250305E0,-3.774550781E0,3.022664337E0,9.684875579E0
4.369902542E0,8.398135986E0,-3.724704437E0,3.019221497E0,9.670460673E0
4.379844542E0,8.411308594E0,-3.707789612E0,3.000809784E0,9.669678145E0
4.389785542E0,8.427624664E0,-3.713477783E0,3.025957489E0,9.693874017E0
4.399727542E0,8.448880463E0,-3.725153503E0,3.015479279E0,9.713571175E0
4.409668542E0,8.492888947E0,-3.735781403E0,2.939886475E0,9.732839145E0
4.419610542E0,8.561895447E0,-3.749852142E0,2.868335266E0,9.777258917E0
4.429551542E0,8.641829224E0,-3.731141052E0,2.810256042E0,9.823449746E0
4.439492542E0,8.746311951E0,-3.691323853E0,2.745291138E0,9.882331099E0
4.449434542E0,8.756939850E0,-3.666176147E0,2.708018646E0,9.872092385E0
4.459375542E0,8.975036316E0,-3.715723114E0,2.610122223E0,1.005836036E1
4.469317542E0,8.975784760E0,-3.745810547E0,2.597698059E0,1.006696796E1
4.479258542E0,8.978329468E0,-3.702550507E0,2.694546661E0,1.007868354E1
4.489200542E0,8.956774292E0,-3.705993347E0,2.723586273E0,1.006857063E1
4.499141542E0,8.955127716E0,-3.695215759E0,2.748135223E0,1.006981525E1
4.509082542E0,8.911268921E0,-3.683240662E0,2.766696625E0,1.003152958E1
4.519024542E0,8.879085846E0,-3.739523621E0,2.801274719E0,1.003341131E1
4.528965542E0,8.785081329E0,-3.780688019E0,2.857557678E0,9.981828076E0
4.538907542E0,8.714128876E0,-3.815864868E0,2.886297913E0,9.941206285E0
4.548848542E0,8.676856384E0,-3.828588409E0,2.917882233E0,9.922699363E0
4.558790542E0,8.615933075E0,-3.874393158E0,2.959944763E0,9.899823135E0
4.568731292E0,8.559799805E0,-3.873045959E0,2.999462585E0,9.862425336E0
4.578673292E0,8.574618988E0,-3.909420319E0,2.972069550E0,9.881338747E0
4.588614292E0,8.533604279E0,-3.905378723E0,2.952909393E0,9.838397168E0
4.598555292E0,8.569379883E0,-3.884422302E0,2.909349976E0,9.848214329E0
4.608497292E0,8.591833191E0,-3.858825531E0,2.924468536E0,9.862182734E0
4.618438292E0,8.644972687E0,-3.821702728E0,2.953508148E0,9.902735727E0
4.628380292E0,8.740623779E0,-3.895499268E0,2.872526550E0,9.991237530E0
4.638321292E0,8.734336853E0,-3.940854950E0,2.855911102E0,9.998760234E0
4.648263292E0,8.698261871E0,-3.901636505E0,2.908451843E0,9.967026594E0
4.658204292E0,8.703650665E0,-3.869303741E0,2.917283478E0,9.961706141E0
4.668145292E0,8.742719421E0,-3.806434479E0,2.887645111E0,9.963060805E0
4.678087292E0,8.799152069E0,-3.767365723E0,2.858006744E0,9.989310495E0
4.688028292E0,8.823102264E0,-3.734284515E0,2.868035889E0,1.000088217E1
4.697970292E0,8.787925415E0,-3.672014008E0,2.891237640E0,9.953420270E0
4.707911292E0,8.772507477E0,-3.642076263E0,2.892584839E0,9.929181940E0
4.717853292E0,8.806037750E0,-3.651057587E0,2.887345734E0,9.960586717E0
4.727794292E0,8.781788177E0,-3.678899689E0,2.922522583E0,9.959680957E0
4.737735292E0,8.759484558E0,-3.747457123E0,2.971021729E0,9.979928593E0
4.747677292E0,8.735384674E0,-3.811523895E0,3.005300446E0,9.993322299E0
4.757618292E0,8.670569458E0,-3.864513702E0,3.030897217E0,9.964917402E0
4.767560292E0,8.665030975E0,-3.891457672E0,3.065924377E0,9.981287337E0
4.777501292E0,8.627758484E0,-3.922892303E0,3.050356750E0,9.956504245E0
4.787443292E0,8.654403076E0,-3.921245728E0,3.000061340E0,9.963695535E0
4.797384292E0,8.603508911E0,-3.941154327E0,2.925516357E0,9.905135485E0
4.807326292E0,8.526868286E0,-3.944148102E0,2.877765656E0,9.825747920E0
4.817267292E0,8.413254547E0,-3.960164795E0,2.838996277E0,9.722430619E0
4.827208292E0,8.332272949E0,-3.939956818E0,2.841840363E0,9.645003311E0
4.837150292E0,8.319848785E0,-3.945046234E0,2.859503632E0,9.641578430E0
4.847091292E0,8.303233337E0,-3.994593201E0,2.897524567E0,9.658991009E0
4.857033292E0,8.334218903E0,-4.085005188E0,2.920726318E0,9.730216561E0
4.866974292E0,8.376730499E0,-4.124822388E0,2.905458069E0,9.778827137E0
4.876916292E0,8.395441589E0,-4.138144684E0,2.825673981E0,9.777121987E0
4.886857292E0,8.431067505E0,-4.107458496E0,2.750081177E0,9.773283023E0
4.896798292E0,8.466843109E0,-4.041894836E0,2.723735962E0,9.769497617E0
4.906740292E0,8.534652100E0,-3.973936157E0,2.687211914E0,9.790483283E0
4.916681292E0,8.599467316E0,-3.901486816E0,2.678679657E0,9.815689594E0
4.926623292E0,8.648265839E0,-3.874093781E0,2.695145416E0,9.852152732E0
4.936564292E0,8.664282532E0,-3.879183197E0,2.744991760E0,9.881944840E0
4.946506292E0,8.642727356E0,-3.887416077E0,2.794089661E0,9.880064622E0
4.956447292E0,8.631650391E0,-3.950135651E0,2.838247833E0,9.907805554E0
4.966388292E0,8.607849884E0,-4.044888611E0,2.875520325E0,9.936036465E0
4.976330292E0,8.539891205E0,-4.084406433E0,2.912343750E0,9.904234641E0
4.986271292E0,8.488398285E0,-4.068988495E0,2.914738770E0,9.854200876E0
4.996213292E0,8.438551941E0,-4.037703552E0,2.885699158E0,9.789763453E0
5.006154292E0,8.418942719E0,-4.023483124E0,2.878065033E0,9.764746350E0
5.016096292E0,8.466992798E0,-4.037703552E0,2.892285461E0,9.816228003E0
5.026037292E0,8.462651825E0,-4.052822113E0,2.859952698E0,9.809239136E0
5.035978292E0,8.493936768E0,-4.051325226E0,2.828817444E0,9.826617222E0
5.045920292E0,8.530011749E0,-4.080664215E0,2.805915070E0,9.863370634E0
5.055861292E0,8.563542023E0,-4.098926239E0,2.825823669E0,9.905590729E0
5.065803292E0,8.534203033E0,-4.093088379E0,2.830464020E0,9.879145735E0
5.075744292E0,8.443791046E0,-4.051474915E0,2.813399506E0,9.778919827E0
5.085686292E0,8.428373108E0,-3.990701294E0,2.838547211E0,9.747846959E0
5.095627292E0,8.472381592E0,-3.964505768E0,2.869383087E0,9.784268758E0
5.105568292E0,8.504864044E0,-3.919748840E0,2.892435150E0,9.801189952E0
5.115510292E0,8.492140503E0,-3.936663666E0,2.869832153E0,9.790286397E0
5.125451292E0,8.480764160E0,-3.917054443E0,2.818937988E0,9.757719387E0
5.135393292E0,8.522976379E0,-3.912713470E0,2.794389038E0,9.785655990E0
5.145334292E0,8.630901947E0,-3.910917206E0,2.772833862E0,9.873011164E0
5.155276292E0,8.680448914E0,-3.916156311E0,2.782413940E0,9.921103816E0
5.165217292E0,8.700357513E0,-3.829636230E0,2.763403473E0,9.899430957E0
5.175158292E0,8.716972961E0,-3.753744049E0,2.762954407E0,9.884843400E0
5.185100292E0,8.754395142E0,-3.707041168E0,2.779270477E0,9.904843911E0
5.195041292E0,8.850046234E0,-3.716770935E0,2.803520050E0,9.999871459E0
5.204983292E0,8.817414093E0,-3.718716888E0,2.829715576E0,9.979125053E0
5.214924292E0,8.803493042E0,-3.712729340E0,2.813998260E0,9.960142323E0
5.224866292E0,8.789871368E0,-3.720064087E0,2.828218689E0,9.954875009E0
5.234807292E0,8.788374481E0,-3.760180664E0,2.875220947E0,9.982052902E0
5.244749292E0,8.757239227E0,-3.811224518E0,2.902613983E0,9.981975713E0
5.254690292E0,8.710985413E0,-3.791914673E0,2.920426941E0,9.939254361E0
5.264631292E0,8.625962219E0,-3.819307709E0,2.892734528E0,9.867231052E0
5.274573292E0,8.702902222E0,-3.699556732E0,2.938090210E0,9.902504793E0
5.284514292E0,8.742120667E0,-3.737877045E0,2.975662079E0,9.962477772E0
5.294456292E0,8.648714905E0,-3.859424286E0,2.949915619E0,9.919547746E0
5.304397292E0,8.683891754E0,-3.965254211E0,2.968626709E0,9.997297710E0
5.314339292E0,8.647517395E0,-4.138444061E0,3.058889008E0,1.006295574E1
5.324280292E0,8.585246887E0,-4.298161926E0,3.082539825E0,1.008378460E1
5.334221292E0,8.489895172E0,-4.254752197E0,3.077450409E0,9.982581696E0
5.344163292E0,8.463699646E0,-4.079317017E0,2.984942780E0,9.858241345E0
5.354104292E0,8.488547974E0,-3.930825806E0,2.899470520E0,9.793557449E0
5.364046292E0,8.526718597E0,-3.810775452E0,2.877466278E0,9.772755587E0
5.373987292E0,8.588989105E0,-3.807931366E0,2.941832428E0,9.845072533E0
5.383928292E0,8.644224243E0,-3.887266388E0,2.992726593E0,9.939309091E0
5.393870292E0,8.709787903E0,-3.999682617E0,2.999163208E0,1.004255178E1
5.403811292E0,8.719966736E0,-4.091890869E0,2.962339783E0,1.007754175E1
5.413753292E0,8.681347046E0,-4.146078186E0,2.917732544E0,1.005330364E1
5.423694292E0,8.622818756E0,-4.194577332E0,2.841241608E0,1.000100676E1
5.433636292E0,8.535101166E0,-4.216581573E0,2.843187561E0,9.935352414E0
5.443577292E0,8.446934509E0,-4.222718811E0,2.866089935E0,9.868967944E0
5.453519292E0,8.369096375E0,-4.215533752E0,2.895877991E0,9.808088921E0
5.463460292E0,8.255033569E0,-4.166136475E0,2.895279236E0,9.689422801E0
5.473401292E0,8.140671387E0,-4.127217407E0,2.926414490E0,9.584798168E0
5.483343292E0,8.077951813E0,-4.050576782E0,2.965183868E0,9.510667334E0
5.493284292E0,8.045020294E0,-4.000281372E0,2.944077759E0,9.454744652E0
5.503226292E0,8.073910217E0,-4.026476898E0,2.911744995E0,9.480443098E0
5.513167292E0,8.141719208E0,-4.089645538E0,2.940485229E0,9.573883521E0
5.523109292E0,8.192912750E0,-4.134851532E0,2.943628693E0,9.637726205E0
5.533050292E0,8.197104034E0,-4.108656006E0,2.983445892E0,9.642329496E0
5.542991292E0,8.224946136E0,-4.105213165E0,2.959046631E0,9.657042562E0
5.552933292E0,8.248746643E0,-4.114643555E0,2.940335541E0,9.675623280E0
5.562874292E0,8.280929718E0,-4.100423126E0,2.938838654E0,9.696599375E0
5.572816250E0,8.334817657E0,-4.090393982E0,2.894979858E0,9.725297769E0
5.582757250E0,8.364905090E0,-4.132007446E0,2.911146240E0,9.773428014E0
5.592699250E0,8.415050812E0,-4.151466980E0,2.968776398E0,9.841818508E0
5.602640250E0,8.436007233E0,-4.157005463E0,3.023113403E0,9.878569081E0
5.612581250E0,8.413104858E0,-4.199217682E0,3.064726868E0,9.889707441E0
5.622523250E0,8.408165131E0,-4.248914337E0,3.145858154E0,9.932116463E0
5.632464250E0,8.428223419E0,-4.288731537E0,3.199297028E0,9.983169320E0
5.642406250E0,8.400980072E0,-4.265829163E0,3.227887573E0,9.959569408E0
5.652347250E0,8.478369141E0,-4.259392548E0,3.181334381E0,1.000730017E1
5.662289250E0,8.563691711E0,-4.303999786E0,3.146157532E0,1.008759323E1
5.672230250E0,8.590186615E0,-4.252806244E0,3.107986908E0,1.007656934E1
5.682171250E0,8.620723114E0,-4.211791534E0,3.047512665E0,1.006694534E1
5.692113250E0,8.715625763E0,-4.152215424E0,2.924618225E0,1.008743858E1
5.702054250E0,8.806486816E0,-4.128115540E0,2.824177094E0,1.012776008E1
5.711996250E0,8.871002655E0,-4.093836823E0,2.730322266E0,1.014439982E1
5.721937250E0,8.905131683E0,-4.015399933E0,2.624642029E0,1.011501620E1
5.731878250E0,8.921447754E0,-3.963907013E0,2.605332184E0,1.010408554E1
5.741820250E0,8.961115265E0,-3.943848724E0,2.617157593E0,1.013434968E1
5.751761250E0,8.939260712E0,-3.932023315E0,2.643053741E0,1.011715980E1
5.761703250E0,8.907676392E0,-3.903432770E0,2.639461212E0,1.007721398E1
5.771644250E0,8.879834290E0,-3.895798645E0,2.605631561E0,1.004081769E1
5.781586250E0,8.889713745E0,-3.938160553E0,2.585124207E0,1.006076469E1
5.791527250E0,8.838669891E0,-3.993994446E0,2.607577515E0,1.004358191E1
5.801468250E0,8.763376465E0,-4.017794952E0,2.636018372E0,9.994400242E0
5.811410250E0,8.653954010E0,-4.030967560E0,2.664309540E0,9.911516776E0
5.821351250E0,8.577313385E0,-4.059707794E0,2.688409424E0,9.863015640E0
5.831293250E0,8.539292450E0,-4.097878418E0,2.759062500E0,9.865320520E0
5.841234250E0,8.486602020E0,-4.154909821E0,2.837200012E0,9.865870128E0
5.851176250E0,8.387358398E0,-4.174818420E0,2.862347717E0,9.796424052E0
5.861117250E0,8.306975555E0,-4.167783051E0,2.818488922E0,9.711855551E0
5.871058250E0,8.294551392E0,-4.124223633E0,2.801723785E0,9.677730082E0
5.881000250E0,8.327632599E0,-4.096531219E0,2.811902618E0,9.697310404E0
5.890941250E0,8.332572327E0,-4.099524994E0,2.797083435E0,9.698533007E0
5.900883250E0,8.368796997E0,-4.116290131E0,2.773881683E0,9.730109311E0
5.910824250E0,8.380622406E0,-4.098327484E0,2.827919312E0,9.748243314E0
5.920766250E0,8.447682953E0,-4.091292114E0,2.887794800E0,9.820457079E0
5.930707250E0,8.560548248E0,-4.103566589E0,2.945125580E0,9.939618189E0
5.940648250E0,8.578810272E0,-4.102668457E0,2.964136047E0,9.960621299E0
5.950590250E0,8.558003540E0,-4.112248535E0,2.981799316E0,9.951941508E0
5.960531250E0,8.529113617E0,-4.114493866E0,2.960693207E0,9.921720775E0
5.970473250E0,8.559201050E0,-4.141288147E0,2.941682739E0,9.953074272E0
5.980414250E0,8.555458832E0,-4.147275696E0,2.958148499E0,9.957229236E0
5.990356250E0,8.526419220E0,-4.146377563E0,2.975961456E0,9.937233931E0
6.000297250E0,8.514144745E0,-4.158053284E0,2.994073792E0,9.937029019E0
6.010238250E0,8.527017975E0,-4.207600250E0,3.031196594E0,9.980084579E0
6.020180250E0,8.512498169E0,-4.239034882E0,3.007096710E0,9.973699034E0
6.030121250E0,8.492140503E0,-4.231101379E0,2.958896942E0,9.938497890E0
6.040063250E0,8.500523071E0,-4.199517059E0,2.891387329E0,9.912363830E0
6.050004250E0,8.487350464E0,-4.196672974E0,2.878514099E0,9.896111628E0
6.059946250E0,8.486152954E0,-4.236789551E0,2.858306122E0,9.906315740E0
6.069887250E0,8.464597778E0,-4.252955933E0,2.847378845E0,9.891643746E0
6.079828250E0,8.398435364E0,-4.270020447E0,2.849624176E0,9.843126999E0
6.089770250E0,8.395740967E0,-4.249962158E0,2.840044098E0,9.829369014E0
6.099711250E0,8.410709839E0,-4.218078461E0,2.811752930E0,9.820294315E0
6.109653250E0,8.510701904E0,-4.163442078E0,2.761457520E0,9.868735708E0
6.119594250E0,8.572673035E0,-4.105811920E0,2.740052032E0,9.892234309E0
6.129536250E0,8.604706421E0,-4.104015656E0,2.740052032E0,9.919264198E0
6.139477250E0,8.591384125E0,-4.076921997E0,2.726430359E0,9.892754755E0
6.149418250E0,8.658893738E0,-4.067641296E0,2.713557129E0,9.944120814E0
6.159360250E0,8.673114166E0,-4.069437561E0,2.696791992E0,9.952683982E0
6.169301250E0,8.643026733E0,-4.067042542E0,2.671195221E0,9.918569960E0
6.179243250E0,8.621920624E0,-4.058360596E0,2.605781250E0,9.879165040E0
6.189184250E0,8.559201050E0,-4.061054993E0,2.596500549E0,9.823131139E0
6.199125250E0,8.583151245E0,-4.079466705E0,2.614313507E0,9.856326345E0
6.209067250E0,8.571924591E0,-4.133504333E0,2.628384247E0,9.872798642E0
6.219008250E0,8.538394318E0,-4.215982819E0,2.562072144E0,9.861181588E0
6.228950250E0,8.551566925E0,-4.275558929E0,2.565215607E0,9.898991471E0
6.238891250E0,8.531358948E0,-4.309687958E0,2.647843781E0,9.918093187E0
6.248833250E0,8.531957703E0,-4.362827454E0,2.723436584E0,9.962212227E0
6.258774250E0,8.484656067E0,-4.413721619E0,2.804867249E0,9.966825341E0
6.268715250E0,8.410859528E0,-4.417014771E0,2.790796509E0,9.901571725E0
6.278657250E0,8.379873962E0,-4.406087494E0,2.754272461E0,9.860117211E0
6.288598250E0,8.346194000E0,-4.382286987E0,2.741399231E0,9.817263533E0
6.298540250E0,8.344547424E0,-4.321064301E0,2.712359619E0,9.780591143E0
6.308481250E0,8.384963379E0,-4.242328033E0,2.715203705E0,9.781476840E0
6.318423250E0,8.442593536E0,-4.174219666E0,2.715054016E0,9.801684230E0
6.328364250E0,8.476722565E0,-4.146676941E0,2.713407440E0,9.818978309E0
6.338305250E0,8.484057312E0,-4.121080170E0,2.617307281E0,9.788402712E0
6.348247250E0,8.503516846E0,-4.110302582E0,2.534529419E0,9.778968526E0
6.358188250E0,8.563691711E0,-4.085603943E0,2.489922180E0,9.809622203E0
6.368130250E0,8.599167938E0,-4.089944916E0,2.465672607E0,9.836304187E0
6.378071250E0,8.612190857E0,-4.073928223E0,2.474354553E0,9.843228788E0
6.388013250E0,8.565787354E0,-4.051474915E0,2.511926422E0,9.802904484E0
6.397954250E0,8.557704163E0,-4.051474915E0,2.577939148E0,9.812977110E0
6.407895250E0,8.550668793E0,-4.082909546E0,2.641107788E0,9.836642593E0
6.417837250E0,8.510701904E0,-4.100423126E0,2.727029114E0,9.832710944E0
6.427778250E0,8.463250580E0,-4.101021881E0,2.770588531E0,9.804139516E0
6.437720250E0,8.434061279E0,-4.099674683E0,2.807861023E0,9.789014541E0
6.447661250E0,8.397986298E0,-4.097129974E0,2.865042114E0,9.773490379E0
6.457603250E0,8.440497894E0,-4.116439819E0,2.893183594E0,9.826372311E0
6.467544250E0,8.475075989E0,-4.121978302E0,2.897823944E0,9.859766820E0
6.477485250E0,8.486452332E0,-4.141288147E0,2.883304138E0,9.873377509E0
6.487427250E0,8.478967896E0,-4.134252777E0,2.861449585E0,9.857628332E0
6.497368250E0,8.485853577E0,-4.148173828E0,2.821482697E0,9.857881194E0
6.507310250E0,8.505612488E0,-4.143084412E0,2.794239349E0,9.865007135E0
6.517251250E0,8.554261322E0,-4.140839081E0,2.813698883E0,9.911550659E0
6.527192250E0,8.565338287E0,-4.166585541E0,2.843187561E0,9.940280205E0
6.537134250E0,8.550668793E0,-4.145329742E0,2.854713593E0,9.922050452E0
6.547075250E0,8.534801788E0,-4.102219391E0,2.822231140E0,9.881094783E0
6.557017250E0,8.546178131E0,-4.075425110E0,2.770438843E0,9.865170138E0
6.566958250E0,8.560099182E0,-4.030817871E0,2.744692383E0,9.851706806E0
6.576899917E0,8.538244629E0,-4.038451996E0,2.724185028E0,9.830152590E0
6.586840917E0,8.513396301E0,-4.091741180E0,2.750081177E0,9.837845747E0
6.596781917E0,8.522976379E0,-4.104764099E0,2.735112305E0,9.847388181E0
6.606723917E0,8.592431946E0,-4.084256744E0,2.761457520E0,9.906396294E0
6.616664917E0,8.592731323E0,-4.078269196E0,2.790497131E0,9.912324927E0
6.626606917E0,8.585097198E0,-4.089046783E0,2.779569855E0,9.907078585E0
6.636547917E0,8.549620972E0,-4.107608185E0,2.788251801E0,9.886496440E0
6.646489917E0,8.526718597E0,-4.087699585E0,2.796185303E0,9.860672907E0
6.656430917E0,8.519832916E0,-4.143683167E0,2.809956665E0,9.881979537E0
6.666371917E0,8.532257080E0,-4.182153168E0,2.815046082E0,9.910312833E0
6.676313917E0,8.521329803E0,-4.172872467E0,2.785856781E0,9.888727130E0
6.686254917E0,8.520731049E0,-4.146078186E0,2.756368103E0,9.868656801E0
6.696196917E0,8.517288208E0,-4.155358887E0,2.762804718E0,9.871387735E0
6.706137917E0,8.528514862E0,-4.137246552E0,2.746937714E0,9.869044613E0
6.716078917E0,8.476273499E0,-4.118236084E0,2.744542694E0,9.815273581E0
6.726020917E0,8.462202759E0,-4.145479431E0,2.768642578E0,9.821367368E0
6.735961917E0,8.429570618E0,-4.170178070E0,2.788700867E0,9.809429059E0
6.745903917E0,8.401728516E0,-4.195026398E0,2.848726044E0,9.813385175E0
6.755844917E0,8.391549683E0,-4.203408966E0,2.903811493E0,9.824401977E0
6.765786917E0,8.358618164E0,-4.218377838E0,2.965932312E0,9.821301527E0
6.775727917E0,8.346942444E0,-4.236490173E0,3.014431458E0,9.833925674E0
6.785668917E0,8.353528748E0,-4.233197021E0,3.017425232E0,9.839016952E0
6.795610917E0,8.366102600E0,-4.216880951E0,2.993924103E0,9.835514181E0
6.805551917E0,8.376281433E0,-4.236490173E0,2.952310638E0,9.840024275E0
6.815493917E0,8.405321045E0,-4.261039124E0,2.918331299E0,9.865218388E0
6.825434917E0,8.392597504E0,-4.307742004E0,2.929408264E0,9.877943451E0
6.835376917E0,8.383017426E0,-4.284989319E0,2.914439392E0,9.855458974E0
6.845317917E0,8.426277466E0,-4.262236633E0,2.895428925E0,9.876857886E0
6.855258917E0,8.486901398E0,-4.239933014E0,2.877017212E0,9.913715516E0
6.865200917E0,8.489296417E0,-4.235142975E0,2.859054565E0,9.908520711E0
6.875141917E0,8.483757935E0,-4.231400757E0,2.826871490E0,9.892931996E0
6.885083917E0,8.468938751E0,-4.237238617E0,2.795436859E0,9.873782553E0
6.895024917E0,8.472381592E0,-4.236041107E0,2.801723785E0,9.878003354E0
6.904965917E0,8.483458557E0,-4.239334259E0,2.819087677E0,9.893850584E0
6.914907917E0,8.490942993E0,-4.225113831E0,2.814746704E0,9.892951976E0
6.924848917E0,8.464448090E0,-4.197271729E0,2.807411957E0,9.856243368E0
6.934790917E0,8.482261047E0,-4.182901611E0,2.767445068E0,9.854144842E0
6.944731917E0,8.464597778E0,-4.190086670E0,2.781216431E0,9.845882728E0
6.954673917E0,8.453071747E0,-4.154311066E0,2.791544952E0,9.823718522E0
6.964614917E0,8.461753693E0,-4.149521027E0,2.768941956E0,9.822771496E0
6.974555917E0,8.486003265E0,-4.147575073E0,2.738255768E0,9.834260270E0
6.984497917E0,8.500972137E0,-4.157604218E0,2.721640320E0,9.846802839E0
6.994438917E0,8.517886963E0,-4.173171844E0,2.721340942E0,9.867900389E0
7.004380917E0,8.525221710E0,-4.197720795E0,2.733615417E0,9.888018928E0
7.014321917E0,8.513545990E0,-4.233047333E0,2.771935730E0,9.903675214E0
7.024262917E0,8.476123810E0,-4.276756439E0,2.825823669E0,9.905584278E0
7.034204917E0,8.457712097E0,-4.304598541E0,2.875370636E0,9.916159479E0
7.044145917E0,8.449329529E0,-4.308789825E0,2.930605774E0,9.926998008E0
7.054087917E0,8.478668518E0,-4.318220215E0,2.964435425E0,9.966078620E0
7.064028917E0,8.497678986E0,-4.273762665E0,2.968177643E0,9.964219687E0
7.073970917E0,8.476423187E0,-4.250411224E0,2.935994568E0,9.926520525E0
7.083911917E0,8.431666260E0,-4.233795776E0,2.902464294E0,9.871287736E0
7.093852917E0,8.458310852E0,-4.188290405E0,2.862647095E0,9.863039459E0
7.103794917E0,8.499774628E0,-4.144431610E0,2.843337250E0,9.874565753E0
7.113735917E0,8.489296417E0,-4.168232117E0,2.848426666E0,9.877036353E0
7.123677917E0,8.426576843E0,-4.199067993E0,2.831362152E0,9.831377368E0
7.133618917E0,8.351882172E0,-4.218976593E0,2.868934021E0,9.786954670E0
7.143560917E0,8.417146454E0,-4.275409241E0,2.939736786E0,9.887847641E0
7.153501917E0,8.382568359E0,-4.271966400E0,3.012934570E0,9.879014321E0
7.163442917E0,8.334368591E0,-4.258045349E0,3.035537567E0,9.839061862E0
7.173384917E0,8.304131470E0,-4.282893677E0,3.005899200E0,9.815151946E0
7.183325917E0,8.327931976E0,-4.280947723E0,2.959944763E0,9.820500874E0
7.193267917E0,8.372988281E0,-4.284689941E0,2.942580872E0,9.855165287E0
7.203208917E0,8.474477234E0,-4.281097412E0,2.865191803E0,9.917352646E0
7.213149917E0,8.544531555E0,-4.286785583E0,2.837050323E0,9.971680133E0
7.223091917E0,8.549171906E0,-4.264032898E0,2.788700867E0,9.952244438E0
7.233032917E0,8.582103424E0,-4.227359161E0,2.765648804E0,9.958507818E0
7.242974917E0,8.618627472E0,-4.184248810E0,2.722987518E0,9.960087280E0
7.252915917E0,8.662785645E0,-4.148024139E0,2.752176819E0,9.991217975E0
7.262857917E0,8.648116150E0,-4.221521301E0,2.758613434E0,1.001104905E1
7.272798917E0,8.581055603E0,-4.218377838E0,2.755469971E0,9.950971893E0
7.282739917E0,8.578061829E0,-4.252506866E0,2.774031372E0,9.968059462E0
7.292681917E0,8.558901672E0,-4.300107880E0,2.830164642E0,9.987770398E0
7.302622917E0,8.486302643E0,-4.334236908E0,2.853366394E0,9.947092133E0
7.312564917E0,8.436306610E0,-4.345613251E0,2.834655304E0,9.904084735E0
7.322505917E0,8.407416687E0,-4.335883484E0,2.837499390E0,9.876028742E0
7.332446917E0,8.383466492E0,-4.328848114E0,2.821482697E0,9.847954154E0
7.342388917E0,8.384514313E0,-4.294270020E0,2.756218414E0,9.815170666E0
7.352329917E0,8.353678436E0,-4.279301147E0,2.672841797E0,9.759121118E0
7.362271917E0,8.332871704E0,-4.296665039E0,2.627336426E0,9.736579378E0
7.372212917E0,8.333620148E0,-4.317621460E0,2.619702301E0,9.744430203E0
7.382153917E0,8.362959137E0,-4.283043365E0,2.623893585E0,9.755427389E0
7.392095917E0,8.390950928E0,-4.264781342E0,2.630779266E0,9.773301229E0
7.402036917E0,8.410560150E0,-4.269272003E0,2.641706543E0,9.795040528E0
7.411978917E0,8.395591278E0,-4.271667023E0,2.710263977E0,9.801970357E0
7.421919917E0,8.388256531E0,-4.268673248E0,2.784958649E0,9.815315257E0
7.431861917E0,8.421487427E0,-4.296515350E0,2.829116821E0,9.868403955E0
7.441802917E0,8.415499878E0,-4.296515350E0,2.907553711E0,9.886078643E0
7.451743917E0,8.405171356E0,-4.298760681E0,2.943778381E0,9.888987819E0
7.461685917E0,8.403824158E0,-4.267176361E0,2.965483246E0,9.880644992E0
7.471626917E0,8.420439606E0,-4.233047333E0,2.957849121E0,9.877821840E0
7.481568917E0,8.447832642E0,-4.251908112E0,2.977009277E0,9.914997890E0
7.491509917E0,8.424630890E0,-4.261338501E0,3.030597839E0,9.915540062E0
7.501451917E0,8.398884430E0,-4.265230408E0,3.047812042E0,9.900636765E0
7.511392917E0,8.401728516E0,-4.270918579E0,3.034938812E0,9.901547412E0
7.521333917E0,8.427774353E0,-4.247118073E0,3.016227722E0,9.907725377E0
7.531275917E0,8.428822174E0,-4.258644104E0,3.052751770E0,9.924736078E0
7.541216917E0,8.377329254E0,-4.270319824E0,3.039429474E0,9.881973910E0
7.551158917E0,8.354875946E0,-4.261637878E0,3.026107178E0,9.855091787E0
7.561099917E0,8.378975830E0,-4.228406982E0,3.021915894E0,9.859951178E0
7.571040875E0,8.381071472E0,-4.222718811E0,2.990930328E0,9.849841492E0
7.580982875E0,8.377628632E0,-4.254153442E0,3.024011536E0,9.870518161E0
7.590923875E0,8.379574585E0,-4.244573364E0,3.022065582E0,9.867449197E0
7.600865875E0,8.382867737E0,-4.246369629E0,2.985840912E0,9.859988462E0
7.610806875E0,8.409961395E0,-4.254752197E0,2.992427216E0,9.888629206E0
7.620748875E0,8.404123535E0,-4.279450836E0,2.981200562E0,9.890932648E0
7.630689875E0,8.404123535E0,-4.250560913E0,2.947969666E0,9.868489531E0
7.640630875E0,8.408464508E0,-4.251908112E0,2.913092194E0,9.862408636E0
7.650572875E0,8.426427155E0,-4.256099396E0,2.901715851E0,9.876184057E0
7.660513875E0,8.451574860E0,-4.246968384E0,2.915187836E0,9.897685496E0
7.670455875E0,8.443192291E0,-4.253105621E0,2.928210754E0,9.897010746E0
7.680396875E0,8.438102875E0,-4.258045349E0,2.936293945E0,9.897189119E0
7.690337875E0,8.440048828E0,-4.258793793E0,2.922073517E0,9.894961467E0
7.700279875E0,8.456963654E0,-4.233646088E0,2.906954956E0,9.894158911E0
7.710220875E0,8.500822449E0,-4.218677216E0,2.884052582E0,9.918617799E0
7.720162875E0,8.545878754E0,-4.202061768E0,2.857557678E0,9.942585310E0
7.730103875E0,8.562494202E0,-4.201762390E0,2.818189545E0,9.945516902E0
7.740044875E0,8.558751984E0,-4.238436127E0,2.839295654E0,9.963843442E0
7.749986875E0,8.538843384E0,-4.247417450E0,2.842588806E0,9.951518098E0
7.759927875E0,8.519982605E0,-4.217180328E0,2.816093903E0,9.914892757E0
7.769869875E0,8.490643616E0,-4.170627136E0,2.776276703E0,9.858644534E0
7.779810875E0,8.523126068E0,-4.119882660E0,2.753374329E0,9.858913799E0
7.789752875E0,8.556057587E0,-4.151317291E0,2.736160126E0,9.895763180E0
7.799693875E0,8.582402802E0,-4.135300598E0,2.743794250E0,9.913967711E0
7.809634875E0,8.564290466E0,-4.164190521E0,2.703977051E0,9.899446741E0
7.819576875E0,8.564589844E0,-4.223916321E0,2.738854523E0,9.934535338E0
7.829517875E0,8.525221710E0,-4.245321808E0,2.774330750E0,9.919630717E0
7.839459875E0,8.512049103E0,-4.233945465E0,2.793041840E0,9.908701068E0
7.849400875E0,8.516090698E0,-4.250710602E0,2.772833862E0,9.913674850E0
7.859341875E0,8.470285950E0,-4.266876984E0,2.783162384E0,9.884228656E0
7.869283875E0,8.434809723E0,-4.265978851E0,2.777324524E0,9.851808064E0
7.879224875E0,8.407865753E0,-4.250860291E0,2.783312073E0,9.823891583E0
7.889166875E0,8.435408478E0,-4.270768890E0,2.816243591E0,9.865435169E0
7.899107875E0,8.407865753E0,-4.297263794E0,2.897374878E0,9.876915704E0
7.909049875E0,8.413853302E0,-4.286635895E0,2.937341766E0,9.889193665E0
7.918990875E0,8.403674469E0,-4.266427917E0,2.949765930E0,9.875488383E0
7.928931875E0,8.401429138E0,-4.293970642E0,2.944826202E0,9.884037475E0
7.938873875E0,8.392896881E0,-4.302652588E0,2.899171143E0,9.867052785E0
7.948814875E0,8.391998749E0,-4.286935272E0,2.870430908E0,9.851031957E0
7.958756875E0,8.431666260E0,-4.289030914E0,2.839445343E0,9.876802719E0
7.968697875E0,8.440348206E0,-4.299658813E0,2.809507599E0,9.880277157E0
7.978638875E0,8.430169373E0,-4.273612976E0,2.776426392E0,9.850891687E0
7.988580875E0,8.442144470E0,-4.263883209E0,2.770139465E0,9.855159864E0
7.998521875E0,8.433163147E0,-4.250411224E0,2.767145691E0,9.840799333E0
8.008463875E0,8.388106842E0,-4.233945465E0,2.769989777E0,9.795890667E0
8.018404875E0,8.387208710E0,-4.227059784E0,2.797532501E0,9.799974105E0
8.028346875E0,8.373437347E0,-4.189936981E0,2.820434875E0,9.778797360E0
8.038287875E0,8.398884430E0,-4.211043091E0,2.818638611E0,9.809121632E0
8.048228875E0,8.375832367E0,-4.197870483E0,2.835403748E0,9.788574914E0
8.058170875E0,8.400531006E0,-4.209995270E0,2.869233398E0,9.824738248E0
8.068111875E0,8.447383575E0,-4.229754181E0,2.877017212E0,9.875542402E0
8.078053875E0,8.438701630E0,-4.214336243E0,2.843037872E0,9.851658718E0
8.087994875E0,8.463250580E0,-4.206851807E0,2.817740479E0,9.862244871E0
8.097935875E0,8.496331787E0,-4.197720795E0,2.826422424E0,9.889245544E0
8.107877875E0,8.524024200E0,-4.194277954E0,2.812501373E0,9.907629389E0
8.117818875E0,8.544531555E0,-4.194128265E0,2.801873474E0,9.922208744E0
8.127760875E0,8.535101166E0,-4.166735229E0,2.802921295E0,9.902827988E0
8.137701875E0,8.505762177E0,-4.167184296E0,2.805915070E0,9.878591728E0
8.147642875E0,8.489146729E0,-4.170627136E0,2.806513824E0,9.865914186E0
8.157584875E0,8.461005249E0,-4.166884918E0,2.817441101E0,9.843247132E0
8.167525875E0,8.419840851E0,-4.209695892E0,2.802771606E0,9.821954395E0
8.177467875E0,8.413404236E0,-4.245621185E0,2.852468262E0,9.846179222E0
8.187408875E0,8.415799255E0,-4.277504883E0,2.899171143E0,9.875622433E0
8.197350875E0,8.404722290E0,-4.271816711E0,2.927162933E0,9.871983470E0
8.207291875E0,8.392298126E0,-4.257147217E0,2.924318848E0,9.854217929E0
8.217232875E0,8.419840851E0,-4.224066010E0,2.925067291E0,9.863694656E0
8.227174875E0,8.455915833E0,-4.218228149E0,2.892435150E0,9.882415817E0
8.237115875E0,8.472980347E0,-4.207001495E0,2.839595032E0,9.876920445E0
8.247057875E0,8.502169647E0,-4.202959900E0,2.805615692E0,9.890563181E0
8.256998875E0,8.467591553E0,-4.197122040E0,2.803669739E0,9.857814369E0
8.266939875E0,8.455167389E0,-4.185446320E0,2.794987793E0,9.839703920E0
8.276881875E0,8.414002991E0,-4.185446320E0,2.786904602E0,9.802053075E0
8.286822875E0,8.390501862E0,-4.196972351E0,2.780018921E0,9.784866049E0
8.296764875E0,8.362210693E0,-4.220024414E0,2.757116547E0,9.764059882E0
8.306705875E0,8.382867737E0,-4.237837372E0,2.767894135E0,9.792495853E0
8.316646875E0,8.418643341E0,-4.246968384E0,2.789598999E0,9.833217110E0
8.326588875E0,8.457113342E0,-4.250710602E0,2.849474487E0,9.884877923E0
8.336529875E0,8.485554199E0,-4.251758423E0,2.897374878E0,9.923550823E0
8.346471875E0,8.491242371E0,-4.220024414E0,2.900069275E0,9.915654535E0
8.356412875E0,8.499774628E0,-4.188290405E0,2.872526550E0,9.901482415E0
8.366354875E0,8.510701904E0,-4.178860016E0,2.836601257E0,9.896525887E0
8.376295875E0,8.479566650E0,-4.163891144E0,2.813100128E0,9.856701901E0
8.386236875E0,8.473130035E0,-4.174369354E0,2.780617676E0,9.846376326E0
8.396178875E0,8.476722565E0,-4.183949432E0,2.757116547E0,9.846925913E0
8.406119875E0,8.526119843E0,-4.223167877E0,2.750679932E0,9.904347862E0
8.416061875E0,8.529113617E0,-4.241878967E0,2.773881683E0,9.921377720E0
8.426002875E0,8.522078247E0,-4.229604492E0,2.760110321E0,9.906239488E0
8.435943875E0,8.534652100E0,-4.180805969E0,2.765499115E0,9.897848775E0
8.445885875E0,8.559350739E0,-4.185146942E0,2.757116547E0,9.918650697E0
8.455826875E0,8.559650116E0,-4.192930756E0,2.748434601E0,9.919786852E0
8.465768875E0,8.506809998E0,-4.194427643E0,2.771336975E0,9.881262481E0
8.475709875E0,8.466543732E0,-4.185895386E0,2.777025146E0,9.844589966E0
8.485650875E0,8.464148712E0,-4.222868500E0,2.793341217E0,9.862919798E0
8.495592875E0,8.449479218E0,-4.261937256E0,2.819686432E0,9.874636185E0
8.505533875E0,8.434809723E0,-4.251608734E0,2.830314331E0,9.860672954E0
8.515475875E0,8.445437622E0,-4.221820679E0,2.848276978E0,9.862143186E0
8.525416875E0,8.438851318E0,-4.193529510E0,2.859952698E0,9.847803347E0
8.535358875E0,8.420289917E0,-4.196373596E0,2.863994293E0,9.834291889E0
8.545299875E0,8.410410461E0,-4.219575348E0,2.849474487E0,9.831547442E0
8.555240875E0,8.409961395E0,-4.260440369E0,2.780318298E0,9.828986349E0
8.565182875E0,8.428373108E0,-4.289479980E0,2.730322266E0,9.843361795E0
8.575123500E0,8.422684937E0,-4.279600525E0,2.739902344E0,9.836852497E0
8.585065500E0,8.431666260E0,-4.268972626E0,2.763553162E0,9.846539964E0
8.595006500E0,8.422834625E0,-4.304748230E0,2.799478455E0,9.864688544E0
8.604947500E0,8.368347931E0,-4.306993561E0,2.859803009E0,9.836560063E0
8.614889500E0,8.302933960E0,-4.268373871E0,2.875370636E0,9.768596836E0
8.624830500E0,8.253386993E0,-4.214934998E0,2.863994293E0,9.699821504E0
8.634772500E0,8.224197693E0,-4.198469238E0,2.870430908E0,9.669743804E0
8.644713500E0,8.173153839E0,-4.200415192E0,2.897374878E0,9.635284772E0
8.654654500E0,8.128845978E0,-4.227508850E0,2.886148224E0,9.606238576E0
8.664596500E0,8.172704773E0,-4.257596283E0,2.887495422E0,9.657010885E0
8.674537500E0,8.208480377E0,-4.261937256E0,2.867586823E0,9.683300752E0
8.684479500E0,8.293204193E0,-4.215982819E0,2.833158417E0,9.725149538E0
8.694420500E0,8.388406219E0,-4.109853516E0,2.812651062E0,9.755370870E0
8.704362500E0,8.541088715E0,-3.982169037E0,2.783910828E0,9.826394362E0
8.714303500E0,8.760382690E0,-3.861669617E0,2.728376312E0,9.954940201E0
8.724244500E0,8.937015381E0,-3.802542572E0,2.705923004E0,1.008224148E1
8.734186500E0,9.011260986E0,-3.751199341E0,2.692900085E0,1.012551391E1
8.744127500E0,9.070837097E0,-3.733536072E0,2.706072693E0,1.017556911E1
8.754069500E0,9.065148926E0,-3.768862610E0,2.772384796E0,1.020134147E1
8.764010500E0,9.035061493E0,-3.855083313E0,2.886447601E0,1.023843656E1
8.773951500E0,8.955277405E0,-3.966002655E0,2.995121613E0,1.024191993E1
8.783893500E0,8.818162537E0,-4.046235809E0,3.062182159E0,1.017393603E1
8.793834500E0,8.698411560E0,-4.131708069E0,3.063229980E0,1.010528343E1
8.803776500E0,8.647816772E0,-4.186194763E0,3.077001343E0,1.008845374E1
8.813717500E0,8.617879028E0,-4.175716553E0,3.077749786E0,1.005867742E1
8.823658500E0,8.640781403E0,-4.140689392E0,3.002007294E0,1.004093918E1
8.833600500E0,8.702004089E0,-4.106410675E0,2.868484955E0,1.004070166E1
8.843541500E0,8.831634521E0,-4.039499817E0,2.682571564E0,1.007529242E1
8.853483500E0,8.955427094E0,-4.038601685E0,2.311343536E0,1.009218940E1
8.863424500E0,8.930429077E0,-4.150269470E0,1.978585510E0,1.004450600E1
8.873365500E0,8.856333160E0,-4.236041107E0,1.933529205E0,1.000585911E1
8.883307500E0,8.780440979E0,-4.355941772E0,2.020348663E0,1.000760617E1
8.893248500E0,8.670868835E0,-4.482728119E0,2.217039642E0,1.000969942E1
8.903190500E0,8.448581085E0,-4.617148590E0,2.426154785E0,9.928887677E0
8.913131500E0,8.208031311E0,-4.729415131E0,2.602039032E0,9.823937734E0
8.923073500E0,8.112978973E0,-4.711751862E0,2.768941956E0,9.782028061E0
8.933014500E0,8.070916443E0,-4.583019562E0,2.875670013E0,9.716647496E0
8.942955500E0,8.090974731E0,-4.419858856E0,2.897973633E0,9.664226590E0
8.952897500E0,8.233927460E0,-4.255500641E0,2.866988068E0,9.701879596E0
8.962838500E0,8.401279449E0,-4.112996979E0,2.817291412E0,9.769102898E0
8.972780500E0,8.515042877E0,-4.030219116E0,2.781665497E0,9.822743215E0
8.982721500E0,8.613987122E0,-4.005071411E0,2.703527985E0,9.876762359E0
8.992662500E0,8.664881287E0,-4.034709778E0,2.672093353E0,9.924672971E0
9.002604500E0,8.706345062E0,-4.090543671E0,2.654729462E0,9.979006984E0
9.012545500E0,8.696465607E0,-4.106560364E0,2.655926971E0,9.977289218E0
9.022487500E0,8.723708954E0,-4.112697601E0,2.667902069E0,1.000675177E1
9.032428500E0,8.734037476E0,-4.124073944E0,2.699187012E0,1.002880885E1
9.042369500E0,8.708590393E0,-4.139042816E0,2.739752655E0,1.002384490E1
9.052311500E0,8.641679535E0,-4.157454529E0,2.747386780E0,9.975529433E0
9.062252500E0,8.602311401E0,-4.167184296E0,2.726430359E0,9.939748936E0
9.072194500E0,8.535699921E0,-4.144581299E0,2.749332733E0,9.878995787E0
9.082135500E0,8.487350464E0,-4.117936707E0,2.777025146E0,9.833838990E0
9.092076500E0,8.384664001E0,-4.124822388E0,2.807861023E0,9.757091456E0
9.102018500E0,8.294102325E0,-4.185296631E0,2.853067017E0,9.718478928E0
9.111959500E0,8.265811157E0,-4.233795776E0,2.892285461E0,9.726971572E0
9.121901500E0,8.294701080E0,-4.194427643E0,3.009491730E0,9.769970815E0
9.131842500E0,8.339907074E0,-4.130360870E0,3.086880798E0,9.805241659E0
9.141784500E0,8.413553925E0,-4.062851257E0,3.047362976E0,9.827566896E0
9.151725500E0,8.496481476E0,-4.025878143E0,2.934647369E0,9.849367872E0
9.161666500E0,8.524323578E0,-3.981719971E0,2.821931763E0,9.822498931E0
9.171608500E0,8.530760193E0,-3.981270905E0,2.744842072E0,9.806046374E0
9.181549500E0,8.504115601E0,-3.964056702E0,2.750679932E0,9.777523601E0
9.191491500E0,8.476273499E0,-3.938010864E0,2.796484680E0,9.755791539E0
9.201432500E0,8.504265289E0,-3.921545105E0,2.870580597E0,9.794961822E0
9.211373500E0,8.497529297E0,-3.955374756E0,2.936892700E0,9.822338436E0
9.221315500E0,8.504564667E0,-4.019441528E0,2.949765930E0,9.858227499E0
9.231256500E0,8.532406769E0,-4.095932465E0,2.936593323E0,9.909702739E0
9.241198500E0,8.569379883E0,-4.125870209E0,2.910248108E0,9.946186234E0
9.251139500E0,8.621621246E0,-4.114044800E0,2.854264526E0,9.970182722E0
9.261080500E0,8.616681519E0,-4.033362579E0,2.807861023E0,9.919642010E0
9.271022500E0,8.682843933E0,-3.945046234E0,2.770588531E0,9.931330695E0
9.280963500E0,8.975485382E0,-3.781436462E0,2.837050323E0,1.014433113E1
9.290905500E0,9.067993011E0,-3.622167664E0,2.915786591E0,1.019070200E1
9.300846500E0,8.962761841E0,-3.744613037E0,2.735261993E0,1.009132721E1
9.310787500E0,8.868607635E0,-3.874692535E0,2.659519501E0,1.003685646E1
9.320729500E0,8.788673859E0,-4.026476898E0,2.570155334E0,1.000294971E1
9.330670500E0,8.769064636E0,-4.106560364E0,2.583777008E0,1.002178808E1
9.340612500E0,8.718020782E0,-4.089346161E0,2.651286621E0,9.987790503E0
9.350553500E0,8.664581909E0,-4.118535461E0,2.645299072E0,9.951629072E0
9.360495500E0,8.572673035E0,-4.090693359E0,2.671494598E0,9.867186960E0
9.370436500E0,8.503965912E0,-4.036655731E0,2.668351135E0,9.784279406E0
9.380377500E0,8.565487976E0,-3.968996429E0,2.664159851E0,9.809090918E0
9.390319500E0,8.612789612E0,-3.878135376E0,2.719993744E0,9.829468188E0
9.400260500E0,8.693771210E0,-3.720962219E0,2.725382538E0,9.841490114E0
9.410202500E0,8.725804596E0,-3.573369141E0,2.668201447E0,9.799384257E0
9.420143500E0,8.741072845E0,-3.446882172E0,2.621199188E0,9.754898071E0
9.430084500E0,8.697363739E0,-3.393592987E0,2.570454712E0,9.683379926E0
9.440026500E0,8.704548798E0,-3.427722015E0,2.555785217E0,9.697962985E0
9.449967500E0,8.668024750E0,-3.508853302E0,2.619851990E0,9.711350524E0
9.459909500E0,8.611741791E0,-3.558849335E0,2.735411682E0,9.711332675E0
9.469850500E0,8.614585876E0,-3.574117584E0,2.847528534E0,9.751606282E0
9.479791500E0,8.638835449E0,-3.598666534E0,2.912343750E0,9.801103247E0
9.489733500E0,8.647068329E0,-3.620670776E0,2.988684998E0,9.839374247E0
9.499674500E0,8.642427979E0,-3.617976379E0,3.010090485E0,9.840831224E0
9.509616500E0,8.657995605E0,-3.620521088E0,2.941982117E0,9.834852293E0
9.519557500E0,8.717871094E0,-3.598367157E0,2.862198029E0,9.856048912E0
9.529498500E0,8.728049927E0,-3.578159180E0,2.781066742E0,9.834450206E0
9.539440500E0,8.777297516E0,-3.593427429E0,2.715054016E0,9.865353044E0
9.549381500E0,8.762777710E0,-3.584146729E0,2.683320007E0,9.840355036E0
9.559323500E0,8.771908722E0,-3.580853577E0,2.635269928E0,9.834304376E0
9.569264500E0,8.810079346E0,-3.569477234E0,2.628683624E0,9.862486674E0
9.579206417E0,8.822802887E0,-3.601211243E0,2.650238800E0,9.891124248E0
9.589148417E0,8.822503510E0,-3.603456573E0,2.651735687E0,9.892076102E0
9.599089417E0,8.819060669E0,-3.583547974E0,2.694546661E0,9.893342654E0
9.609031417E0,8.854536896E0,-3.566782837E0,2.744692383E0,9.932678376E0
9.618972417E0,9.023236084E0,-3.530109100E0,2.834056549E0,1.009516400E1
9.628914417E0,9.092841339E0,-3.431015167E0,2.917882233E0,1.014719988E1
9.638855417E0,8.979526978E0,-3.510799255E0,2.900218964E0,1.006821167E1
9.648796417E0,8.971443787E0,-3.502266998E0,3.043770447E0,1.010035724E1
9.658738417E0,9.031618652E0,-3.517834625E0,3.158282318E0,1.019411807E1
9.668679417E0,8.953331451E0,-3.562292175E0,3.260370026E0,1.017261433E1
9.678621417E0,8.759933624E0,-3.614832916E0,3.192860413E0,9.999890586E0
9.688562417E0,8.613238678E0,-3.661236420E0,3.209924927E0,9.894248364E0
9.698503417E0,8.477471008E0,-3.652105408E0,3.266357574E0,9.791551481E0
9.708445417E0,8.372688904E0,-3.691772919E0,3.245700531E0,9.709051380E0
9.718386417E0,8.335715790E0,-3.676205292E0,3.211870880E0,9.659956399E0
9.728328417E0,8.421337738E0,-3.586841125E0,3.204236755E0,9.698014835E0
9.738269417E0,8.512049103E0,-3.511248322E0,3.201242981E0,9.748425582E0
9.748210417E0,8.466693420E0,-3.399879913E0,3.164419556E0,9.656999121E0
9.758152417E0,8.421637115E0,-3.333418121E0,3.163820801E0,9.594029922E0
9.768093417E0,8.066575470E0,-3.118764496E0,3.272195435E0,9.246815385E0
9.778035417E0,8.906478882E0,-3.607348480E0,3.357068939E0,1.017881334E1
9.787976417E0,9.026529236E0,-3.650009766E0,3.260669403E0,1.026804588E1
9.797917417E0,8.713081055E0,-3.442092133E0,3.238515472E0,9.912303576E0
9.807859417E0,8.643475800E0,-3.470682678E0,3.239413605E0,9.861496471E0
9.817800417E0,8.579409027E0,-3.536246338E0,3.193459167E0,9.813739291E0
9.827742417E0,8.461753693E0,-3.603755951E0,3.163222046E0,9.725960427E0
9.837683417E0,8.280330963E0,-3.587290192E0,3.282074890E0,9.602319895E0
9.847624417E0,8.244405670E0,-3.575165405E0,3.303480377E0,9.574184829E0
9.857566417E0,8.320597229E0,-3.617826691E0,3.337609406E0,9.667504577E0
9.867507417E0,8.364006958E0,-3.567830658E0,3.441493378E0,9.722649056E0
9.877449417E0,8.553213501E0,-3.603755951E0,3.432362366E0,9.895737949E0
9.887390417E0,8.552764435E0,-3.617976379E0,3.404220886E0,9.890816569E0
9.897331417E0,8.495583344E0,-3.584745483E0,3.347189484E0,9.809638830E0
9.907273417E0,8.513096924E0,-3.620970154E0,3.260370026E0,9.808886624E0
9.917214417E0,8.484057312E0,-3.649710388E0,3.236270142E0,9.786371075E0
9.927156417E0,8.413104858E0,-3.566633148E0,3.273093567E0,9.706407516E0
9.937097417E0,8.593330078E0,-3.675157471E0,3.289409637E0,9.908194590E0
9.947039417E0,8.572373657E0,-3.614084473E0,3.298840027E0,9.870640416E0
9.956980417E0,8.384364624E0,-3.447181549E0,3.309168549E0,9.650452179E0
9.966921417E0,8.699309692E0,-3.683989105E0,3.259172516E0,9.993596467E0
9.976863417E0,8.729397125E0,-3.677103424E0,3.354374542E0,1.004864629E1
9.986804417E0,8.400680695E0,-3.401975555E0,3.437152405E0,9.693239421E0
9.996746417E0,8.607849884E0,-3.670666809E0,3.231929169E0,9.900214169E0
1.000668742E1,8.665030975E0,-3.840413818E0,3.229534149E0,1.001306301E1
1.001662842E1,8.363258514E0,-3.605252838E0,3.374881897E0,9.712454315E0
1.002657042E1,8.440497894E0,-3.681444397E0,3.391347656E0,9.813066619E0
1.003651142E1,8.282426605E0,-3.465593262E0,3.449127502E0,9.617973157E0
1.004645342E1,8.774303741E0,-3.729494476E0,3.387455750E0,1.011792428E1
1.005639442E1,8.737779694E0,-3.737427979E0,3.489244080E0,1.012383258E1
1.006633542E1,8.501570892E0,-3.521726532E0,3.455414429E0,9.829504274E0
1.007627742E1,8.570128326E0,-3.684737549E0,3.303779755E0,9.896431226E0
1.008621842E1,8.586893463E0,-3.701652374E0,3.301384735E0,9.916456566E0
1.009616042E1,8.584498444E0,-3.713028717E0,3.303779755E0,9.919433273E0
1.010610142E1,8.634045410E0,-3.700754242E0,3.279979248E0,9.949903817E0
1.011604242E1,8.637937317E0,-3.670217743E0,3.279979248E0,9.941967775E0
1.012598442E1,8.633895721E0,-3.686084747E0,3.312012634E0,9.954938663E0
1.013592542E1,8.629554749E0,-3.639531555E0,3.300336914E0,9.930137403E0
1.014586742E1,8.591234436E0,-3.617826691E0,3.264561310E0,9.877010663E0
1.015580842E1,8.549920349E0,-3.592978363E0,3.273542633E0,9.834973964E0
1.016574942E1,8.500972137E0,-3.632795563E0,3.311114502E0,9.819735746E0
1.017569142E1,8.366252289E0,-3.551813965E0,3.337908783E0,9.682520067E0
1.018563242E1,8.681347046E0,-3.892355804E0,3.347039795E0,1.008557860E1
1.019557442E1,8.434660034E0,-3.765569458E0,3.416195984E0,9.848522642E0
1.020551542E1,8.391399994E0,-3.720812531E0,3.434308319E0,9.800740450E0
1.021545642E1,8.442892914E0,-3.785777435E0,3.444786530E0,9.873252037E0
1.022539842E1,8.381819916E0,-3.693569183E0,3.423381042E0,9.778389242E0
1.023533942E1,8.434510345E0,-3.710034943E0,3.394640808E0,9.819822313E0
1.024528142E1,8.477770386E0,-3.715872803E0,3.373385010E0,9.851904781E0
1.025522242E1,8.536448364E0,-3.702101440E0,3.365301819E0,9.894531928E0
1.026516342E1,8.560398560E0,-3.680695953E0,3.378624115E0,9.911763068E0
1.027510542E1,8.616382141E0,-3.677402802E0,3.374283142E0,9.957465505E0
1.028504642E1,8.608748016E0,-3.676205292E0,3.338058472E0,9.938192095E0
1.029498842E1,8.583450623E0,-3.673061829E0,3.291804657E0,9.899645735E0
1.030492942E1,8.573870544E0,-3.656895447E0,3.274440765E0,9.879580090E0
1.031487042E1,8.568631439E0,-3.680695953E0,3.259771271E0,9.879022025E0
1.032481242E1,8.510252838E0,-3.713926849E0,3.276835785E0,9.846588687E0
1.033475342E1,8.468639374E0,-3.737577667E0,3.290906525E0,9.824327225E0
1.034469542E1,8.408165131E0,-3.753744049E0,3.339405670E0,9.794869345E0
1.035463642E1,8.405470734E0,-3.764821014E0,3.361260223E0,9.804278954E0
1.036457742E1,8.445587311E0,-3.768563232E0,3.378324738E0,9.845968307E0
1.037451942E1,8.463849335E0,-3.720962219E0,3.399580536E0,9.850860532E0
1.038446042E1,8.494535522E0,-3.703448639E0,3.385659485E0,9.865868219E0
1.039440242E1,8.542136536E0,-3.660487976E0,3.365301819E0,9.883952911E0
1.040434342E1,8.564589844E0,-3.619473267E0,3.323239288E0,9.874041993E0
1.041428542E1,8.540040894E0,-3.604504395E0,3.274740143E0,9.831005716E0
1.042422642E1,8.557554474E0,-3.609593811E0,3.212918701E0,9.827703324E0
1.043416742E1,8.577912140E0,-3.638034668E0,3.203188934E0,9.852730194E0
1.044410942E1,8.555309143E0,-3.651806030E0,3.200494537E0,9.837284539E0
1.045405042E1,8.590336304E0,-3.657643890E0,3.238365784E0,9.882269455E0
1.046399242E1,8.631800079E0,-3.661086731E0,3.269950104E0,9.929959836E0
1.047393342E1,8.624914398E0,-3.661236420E0,3.229983215E0,9.910932957E0
1.048387442E1,8.600964203E0,-3.681594086E0,3.270848236E0,9.911062931E0
1.049381642E1,8.563542023E0,-3.671864319E0,3.280128937E0,9.878060811E0
1.050375742E1,8.549022217E0,-3.661685486E0,3.292104034E0,9.865681448E0
1.051369942E1,8.553961945E0,-3.671864319E0,3.351680145E0,9.893766337E0
1.052364042E1,8.558452606E0,-3.666176147E0,3.417243805E0,9.917938988E0
1.053358142E1,8.552015991E0,-3.667673035E0,3.442092133E0,9.921532203E0
1.054352342E1,8.556806030E0,-3.672014008E0,3.448678436E0,9.929551816E0
1.055346442E1,8.562643890E0,-3.686683502E0,3.446433105E0,9.939235725E0
1.056340642E1,8.532855835E0,-3.667074280E0,3.423381042E0,9.898312999E0
1.057334717E1,8.536747742E0,-3.682192841E0,3.379821625E0,9.892310162E0
1.058328817E1,8.539591827E0,-3.683689728E0,3.351829834E0,9.885795963E0
1.059323017E1,8.559051361E0,-3.667373657E0,3.360960846E0,9.899648860E0
1.060317117E1,8.575666809E0,-3.644171906E0,3.331472168E0,9.895491746E0
1.061311317E1,8.619974670E0,-3.644321594E0,3.292253723E0,9.920885937E0
1.062305417E1,8.612490234E0,-3.642525330E0,3.271596680E0,9.906882640E0
1.063299517E1,8.577463074E0,-3.642974396E0,3.242856445E0,9.867129935E0
1.064293717E1,8.600664825E0,-3.650458832E0,3.230432281E0,9.885999082E0
1.065287817E1,8.601862335E0,-3.652255096E0,3.187321930E0,9.873703662E0
1.066282017E1,8.557255096E0,-3.660637665E0,3.178041229E0,9.834979865E0
1.067276117E1,8.531059570E0,-3.707639923E0,3.179837494E0,9.830408826E0
1.068270217E1,8.526718597E0,-3.755390625E0,3.230731659E0,9.861314103E0
1.069264417E1,8.511150970E0,-3.729344788E0,3.304079132E0,9.862283828E0
1.070258517E1,8.505462799E0,-3.757486267E0,3.369343414E0,9.890099874E0
1.071252717E1,8.502618713E0,-3.755540314E0,3.439547424E0,9.911059203E0
1.072246817E1,8.515192566E0,-3.735032959E0,3.499273224E0,9.934983077E0
1.073240917E1,8.498427429E0,-3.699407043E0,3.528612213E0,9.917660278E0
1.074235117E1,8.525371399E0,-3.698359222E0,3.536396027E0,9.943134078E0
1.075229217E1,8.575666809E0,-3.709436188E0,3.500171356E0,9.977633867E0
1.076223417E1,8.572822723E0,-3.719914398E0,3.436553650E0,9.956955035E0
1.077217517E1,8.565637665E0,-3.707490234E0,3.365900574E0,9.921941298E0
1.078211617E1,8.585246887E0,-3.724255371E0,3.310366058E0,9.926483044E0
1.079205817E1,8.556356964E0,-3.729943542E0,3.250939636E0,9.883943132E0
1.080199917E1,8.563841400E0,-3.720513153E0,3.162323914E0,9.858087552E0
1.081194117E1,8.576714630E0,-3.697012024E0,3.137325897E0,9.852448708E0
1.082188217E1,8.581205292E0,-3.675456848E0,3.137026520E0,9.848197941E0
1.083182317E1,8.641679535E0,-3.712729340E0,3.153192902E0,9.919960172E0
1.084176517E1,8.646619263E0,-3.753444672E0,3.215313721E0,9.959448474E0
1.085170617E1,8.602910156E0,-3.799698486E0,3.276686096E0,9.959138694E0
1.086164817E1,8.501271515E0,-3.799997864E0,3.321892090E0,9.886686411E0
1.087158917E1,8.492589569E0,-3.810176697E0,3.390150146E0,9.906293054E0
1.088153017E1,8.455317078E0,-3.854484558E0,3.428320770E0,9.904686840E0
1.089147217E1,8.394842834E0,-3.870650940E0,3.492237854E0,9.881854590E0
1.090141317E1,8.359366608E0,-3.854185181E0,3.478765869E0,9.840506362E0
1.091135517E1,8.340056763E0,-3.831133118E0,3.474724274E0,9.813655616E0
1.092129617E1,8.347541199E0,-3.849245453E0,3.434458008E0,9.812932101E0
1.093123717E1,8.373736725E0,-3.881578217E0,3.392694855E0,9.833437576E0
1.094117917E1,8.399782562E0,-3.868854675E0,3.347339172E0,9.835093448E0
1.095112017E1,8.476123810E0,-3.833079071E0,3.287463684E0,9.866336072E0
1.096106217E1,8.495283966E0,-3.796854401E0,3.194656677E0,9.838281572E0
1.097100317E1,8.512198792E0,-3.774401093E0,3.111878815E0,9.817709592E0
1.098094417E1,8.545878754E0,-3.773053894E0,3.092119904E0,9.840182156E0
1.099088617E1,8.518635406E0,-3.775748291E0,3.115621033E0,9.824994594E0
1.100082717E1,8.498427429E0,-3.799099731E0,3.138224030E0,9.823689612E0
1.101076917E1,8.493188324E0,-3.804787903E0,3.219804382E0,9.847730660E0
1.102071017E1,8.464597778E0,-3.814517670E0,3.301983490E0,9.854088267E0
1.103065117E1,8.430618439E0,-3.853287048E0,3.347638550E0,9.855446829E0
1.104059317E1,8.392298126E0,-3.876788177E0,3.397634583E0,9.849064685E0
1.105053417E1,8.378676453E0,-3.883823547E0,3.404370575E0,9.842562850E0
1.106047617E1,8.398585052E0,-3.871249695E0,3.409609680E0,9.856380840E0
1.107041717E1,8.429720306E0,-3.845054169E0,3.362308044E0,9.856456838E0
1.108035817E1,8.447233887E0,-3.805536346E0,3.269051971E0,9.824691752E0
1.109030017E1,8.495134277E0,-3.805985413E0,3.203039246E0,9.844404084E0
1.110024117E1,8.569230194E0,-3.822451172E0,3.218008118E0,9.919597539E0
1.111018317E1,8.600066071E0,-3.802841949E0,3.228186951E0,9.942028681E0
1.112012417E1,8.590036926E0,-3.753744049E0,3.171305237E0,9.896287470E0
1.113006517E1,8.622220001E0,-3.751498718E0,3.151995392E0,9.917232242E0
1.114000717E1,8.647367706E0,-3.760030975E0,3.177891541E0,9.950567613E0
1.114994817E1,8.603508911E0,-3.756288757E0,3.191662903E0,9.915481980E0
1.115989017E1,8.567583618E0,-3.751947784E0,3.189417572E0,9.881952524E0
1.116983117E1,8.554261322E0,-3.771856384E0,3.219355316E0,9.887696193E0
1.117977217E1,8.511600037E0,-3.780837708E0,3.278332672E0,9.873678852E0
1.118971417E1,8.502019958E0,-3.755540314E0,3.308719482E0,9.865903458E0
1.119965517E1,8.498128052E0,-3.767814789E0,3.279530182E0,9.857480757E0
1.120959717E1,8.506510620E0,-3.767665100E0,3.256777496E0,9.857110271E0
1.121953817E1,8.516839142E0,-3.768563232E0,3.217409363E0,9.853443094E0
1.122947917E1,8.518336029E0,-3.774401093E0,3.211721191E0,9.855115693E0
1.123942117E1,8.555907898E0,-3.744163971E0,3.209026794E0,9.875230467E0
1.124936217E1,8.541088715E0,-3.733835449E0,3.209625549E0,9.858672312E0
1.125930417E1,8.535550232E0,-3.726051636E0,3.219954071E0,9.854297680E0
1.126924517E1,8.519982605E0,-3.738176422E0,3.234773254E0,9.850270278E0
1.127918617E1,8.540939026E0,-3.721860352E0,3.272195435E0,9.874570719E0
1.128912817E1,8.569230194E0,-3.703598328E0,3.277733917E0,9.894032865E0
1.129906917E1,8.553363190E0,-3.704346771E0,3.275338898E0,9.879779944E0
1.130901117E1,8.517288208E0,-3.719764709E0,3.302582245E0,9.863462749E0
1.131895217E1,8.506510620E0,-3.730392609E0,3.332819366E0,9.868345194E0
1.132889317E1,8.542884979E0,-3.741918640E0,3.339255981E0,9.906233865E0
1.133883517E1,8.550519104E0,-3.725901947E0,3.341201935E0,9.907439257E0
1.134877617E1,8.560697937E0,-3.694916382E0,3.316952362E0,9.896470543E0
1.135871817E1,8.538094940E0,-3.719615021E0,3.285068665E0,9.875539339E0
1.136865917E1,8.525970154E0,-3.742966461E0,3.262615356E0,9.866439274E0
1.137860017E1,8.530161438E0,-3.732488251E0,3.263064423E0,9.866241033E0
1.138854217E1,8.514144745E0,-3.749253387E0,3.289858704E0,9.867660918E0
1.139848317E1,8.517737274E0,-3.791914673E0,3.293600922E0,9.888289649E0
1.140842517E1,8.515192566E0,-3.807182922E0,3.301684113E0,9.894658368E0
1.141836617E1,8.487799530E0,-3.758534088E0,3.314407654E0,9.856704188E0
1.142830717E1,8.480165405E0,-3.738475800E0,3.303181000E0,9.838720004E0
1.143824917E1,8.466992798E0,-3.761228485E0,3.293002167E0,9.832632914E0
1.144819017E1,8.495433655E0,-3.773652649E0,3.285667419E0,9.859434958E0
1.145813217E1,8.523724823E0,-3.758983154E0,3.315754852E0,9.888279398E0
1.146807317E1,8.515641632E0,-3.721860352E0,3.276686096E0,9.854190411E0
1.147801417E1,8.515342255E0,-3.720962219E0,3.261567535E0,9.848575346E0
1.148795617E1,8.570876770E0,-3.747008057E0,3.276686096E0,9.911441356E0
1.149789717E1,8.568781128E0,-3.776646423E0,3.296894073E0,9.927566608E0
1.150783917E1,8.553213501E0,-3.723506927E0,3.276386719E0,9.887197528E0
1.151778017E1,8.531957703E0,-3.725452881E0,3.232378235E0,9.855027674E0
1.152772117E1,8.511749725E0,-3.748954010E0,3.222049713E0,9.843075937E0
1.153766317E1,8.499924316E0,-3.788471832E0,3.237168274E0,9.852943248E0
1.154760417E1,8.509205017E0,-3.794010315E0,3.256478119E0,9.869434332E0
1.155754617E1,8.525221710E0,-3.787124634E0,3.220702515E0,9.868872422E0
1.156748717E1,8.563542023E0,-3.815116425E0,3.197800140E0,9.905316302E0
1.157742800E1,8.571774902E0,-3.840413818E0,3.215912476E0,9.928050983E0
1.158737000E1,8.517288208E0,-3.796704712E0,3.230282593E0,9.868834314E0
1.159731100E1,8.505612488E0,-3.794609070E0,3.219055939E0,9.854279422E0
1.160725300E1,8.486003265E0,-3.804638214E0,3.228636017E0,9.844369654E0
1.161719400E1,8.485703888E0,-3.822750549E0,3.260669403E0,9.861671116E0
1.162713500E1,8.509953461E0,-3.810176697E0,3.256178741E0,9.876206476E0
1.163707700E1,8.491691437E0,-3.799399109E0,3.262315979E0,9.858344820E0
1.164701800E1,8.474626923E0,-3.797153778E0,3.289409637E0,9.851796489E0
1.165696000E1,8.455466766E0,-3.819307709E0,3.309617615E0,9.850664869E0
1.166690100E1,8.480913849E0,-3.865860901E0,3.334016876E0,9.898810471E0
1.167684200E1,8.461304626E0,-3.854933624E0,3.377576294E0,9.892533086E0
1.168678400E1,8.450077972E0,-3.863016815E0,3.369642792E0,9.883380454E0
1.169672500E1,8.490344238E0,-3.881129150E0,3.387755127E0,9.931062056E0
1.170666700E1,8.470136261E0,-3.872896271E0,3.378025360E0,9.907249322E0
1.171660800E1,8.472082214E0,-3.855532379E0,3.349135437E0,9.892321019E0
1.172655000E1,8.486003265E0,-3.846850433E0,3.347189484E0,9.900211468E0
1.173649100E1,8.486751709E0,-3.854185181E0,3.327729950E0,9.897145275E0
1.174643200E1,8.502618713E0,-3.829636230E0,3.303630066E0,9.893159771E0
1.175637400E1,8.466094666E0,-3.811224518E0,3.256777496E0,9.839044205E0
1.176631500E1,8.437953186E0,-3.844006348E0,3.235072632E0,9.820444680E0
1.177625600E1,8.444689178E0,-3.864064636E0,3.240910492E0,9.836019096E0
1.178619800E1,8.421637115E0,-3.861370239E0,3.248245239E0,9.817598941E0
1.179613900E1,8.419990540E0,-3.845652924E0,3.234623566E0,9.805512567E0
1.180608100E1,8.431666260E0,-3.843856659E0,3.186573486E0,9.799106108E0
1.181602200E1,8.430917816E0,-3.865561523E0,3.223696289E0,9.819122103E0
1.182596300E1,8.399483185E0,-3.853586426E0,3.236419830E0,9.791621900E0
1.183590500E1,8.381370850E0,-3.832779694E0,3.234623566E0,9.767311150E0
1.184584600E1,8.346194000E0,-3.868555298E0,3.199596405E0,9.739717221E0
1.185578800E1,8.379275208E0,-3.900139618E0,3.227438507E0,9.789775348E0
1.186572900E1,8.408464508E0,-3.912414093E0,3.276237030E0,9.835801365E0
1.187567000E1,8.410111084E0,-3.859424286E0,3.298091583E0,9.823570245E0
1.188561200E1,8.427474976E0,-3.859573975E0,3.294199677E0,9.837194582E0
1.189555300E1,8.427774353E0,-3.853885803E0,3.304977264E0,9.838835858E0
1.190549500E1,8.417445831E0,-3.832779694E0,3.326532440E0,9.829008728E0
1.191543600E1,8.467441864E0,-3.813170471E0,3.314856720E0,9.860330412E0
1.192537700E1,8.494385834E0,-3.803440704E0,3.328777771E0,9.884407586E0
1.193531900E1,8.516240387E0,-3.794160004E0,3.312910767E0,9.894310396E0
1.194526000E1,8.537047119E0,-3.824546814E0,3.311114502E0,9.923296382E0
1.195520200E1,8.561446381E0,-3.818409576E0,3.297792206E0,9.937507195E0
1.196514300E1,8.551417236E0,-3.815715179E0,3.297792206E0,9.927832216E0
1.197508400E1,8.544681244E0,-3.795507202E0,3.292403412E0,9.912485698E0
1.198502600E1,8.561596069E0,-3.788771210E0,3.283721466E0,9.921619888E0
1.199496700E1,8.540340271E0,-3.783532104E0,3.275787964E0,9.898652126E0
1.200490900E1,8.502319336E0,-3.830534363E0,3.288361816E0,9.888162166E0
1.201485000E1,8.531957703E0,-3.828738098E0,3.321293335E0,9.923937076E0
1.202479100E1,8.546477509E0,-3.810176697E0,3.356470184E0,9.941107401E0
1.203473300E1,8.542435913E0,-3.795058136E0,3.341651001E0,9.926847888E0
1.204467400E1,8.563691711E0,-3.803889771E0,3.298091583E0,9.933972076E0
1.205461600E1,8.574768677E0,-3.796405334E0,3.292702789E0,9.938875338E0
1.206455700E1,8.572223969E0,-3.773802338E0,3.257825317E0,9.916553517E0
1.207449800E1,8.581953735E0,-3.795357513E0,3.238066406E0,9.926718623E0
1.208444000E1,8.563841400E0,-3.802841949E0,3.253783722E0,9.919077322E0
1.209438100E1,8.545429688E0,-3.804638214E0,3.248394928E0,9.902106346E0
1.210432300E1,8.526868286E0,-3.817661133E0,3.223396912E0,9.882930079E0
1.211426400E1,8.503516846E0,-3.835623779E0,3.218307495E0,9.868095645E0
1.212420500E1,8.475225677E0,-3.849993896E0,3.243006134E0,9.857433341E0
1.213414700E1,8.476722565E0,-3.841611328E0,3.258723450E0,9.860632919E0
1.214408800E1,8.481662292E0,-3.852837982E0,3.266806641E0,9.871928960E0
1.215403000E1,8.503217468E0,-3.852987671E0,3.269051971E0,9.891254829E0
1.216397100E1,8.506809998E0,-3.869004364E0,3.271896057E0,9.901530938E0
1.217391200E1,8.481961670E0,-3.842210083E0,3.268303528E0,9.868538901E0
1.218385400E1,8.524922333E0,-3.855382690E0,3.267704773E0,9.910407204E0
1.219379500E1,8.561296692E0,-3.829037476E0,3.285966797E0,9.937550343E0
1.220373700E1,8.543483734E0,-3.809877319E0,3.291355591E0,9.916617424E0
1.221367800E1,8.512797546E0,-3.829785919E0,3.250490570E0,9.884364987E0
1.222361900E1,8.533005524E0,-3.861070862E0,3.258124695E0,9.916422137E0
1.223356100E1,8.487350464E0,-3.859124908E0,3.277733917E0,9.882889385E0
1.224350200E1,8.440797272E0,-3.860172729E0,3.284320221E0,9.845544749E0
1.225344400E1,8.420888672E0,-3.877386932E0,3.307671661E0,9.843078140E0
1.226338500E1,8.439899139E0,-3.893403625E0,3.309916992E0,9.866409670E0
1.227332600E1,8.437953186E0,-3.883823547E0,3.308120728E0,9.860365210E0
1.228326800E1,8.445737000E0,-3.914659424E0,3.283122711E0,9.870862506E0
1.229320900E1,8.461903381E0,-3.938459930E0,3.247197418E0,9.882285491E0
1.230315100E1,8.500672760E0,-3.952830048E0,3.271596680E0,9.929231974E0
1.231309200E1,8.474776611E0,-3.949087830E0,3.264261932E0,9.903158045E0
1.232303300E1,8.425379333E0,-3.926484833E0,3.248245239E0,9.846593177E0
1.233297500E1,8.410709839E0,-3.917503510E0,3.243455200E0,9.828879660E0
1.234291600E1,8.414901123E0,-3.935466156E0,3.302133179E0,9.859134765E0
1.235285700E1,8.383167114E0,-3.914958801E0,3.323239288E0,9.830987369E0
1.236279900E1,8.354127502E0,-3.900888062E0,3.295397186E0,9.791221405E0
1.237274000E1,8.357270966E0,-3.900139618E0,3.263513489E0,9.782923250E0
1.238268200E1,8.350834351E0,-3.916904755E0,3.248993683E0,9.779291240E0
1.239262300E1,8.357420654E0,-3.915258179E0,3.244203644E0,9.782667524E0
1.240256500E1,8.368497620E0,-3.908971252E0,3.254232788E0,9.792948468E0
1.241250600E1,8.390052795E0,-3.927682343E0,3.286565552E0,9.829607704E0
1.242244700E1,8.393495636E0,-3.934568024E0,3.319197693E0,9.846251462E0
1.243238900E1,8.393196259E0,-3.898942108E0,3.328478394E0,9.834951012E0
1.244233000E1,8.409961395E0,-3.874991913E0,3.347937927E0,9.846405505E0
1.245227200E1,8.423433380E0,-3.862567749E0,3.357967072E0,9.856449786E0
1.246221300E1,8.421038361E0,-3.836970978E0,3.342100067E0,9.838997216E0
1.247215400E1,8.442593536E0,-3.815715179E0,3.322490845E0,9.842561321E0
1.248209600E1,8.470136261E0,-3.800446930E0,3.303181000E0,9.853811946E0
1.249203700E1,8.491691437E0,-3.826642456E0,3.279230804E0,9.874480777E0
1.250197800E1,8.511600037E0,-3.787124634E0,3.253184967E0,9.867768775E0
1.251192000E1,8.519832916E0,-3.780238953E0,3.223097534E0,9.862358601E0
1.252186100E1,8.539142761E0,-3.806733856E0,3.252586212E0,9.898863511E0
1.253180300E1,8.509205017E0,-3.833228760E0,3.239263916E0,9.878919145E0
1.254174400E1,8.469238129E0,-3.885470123E0,3.261567535E0,9.872319654E0
1.255168500E1,8.396339722E0,-3.929927673E0,3.289559326E0,9.836872104E0
1.256162700E1,8.361611938E0,-3.989204407E0,3.327430573E0,9.843886439E0
1.257156800E1,8.329279175E0,-3.993844757E0,3.362607422E0,9.830300921E0
1.258150967E1,8.313561859E0,-3.955973511E0,3.359314270E0,9.800511699E0
1.259145067E1,8.273744659E0,-3.954776001E0,3.388653259E0,9.776403982E0
1.260139167E1,8.327333221E0,-3.952380981E0,3.398233337E0,9.824142905E0
1.261133367E1,8.405770111E0,-3.921545105E0,3.392096100E0,9.876325386E0
1.262127467E1,8.430917816E0,-3.873495026E0,3.353775787E0,9.865705802E0
1.263121667E1,8.424032135E0,-3.854035492E0,3.330124969E0,9.844167781E0
1.264115767E1,8.433163147E0,-3.836821289E0,3.301983490E0,9.835778222E0
1.265109867E1,8.479416962E0,-3.851790161E0,3.310515747E0,9.884144574E0
1.266104067E1,8.525820465E0,-3.839066620E0,3.319197693E0,9.921951443E0
1.267098167E1,8.550070038E0,-3.797004089E0,3.306773529E0,9.922484007E0
1.268092367E1,8.552315369E0,-3.800596619E0,3.267106018E0,9.912649220E0
1.269086467E1,8.520132294E0,-3.798201599E0,3.266956329E0,9.883926009E0
1.270080567E1,8.534801788E0,-3.783831482E0,3.299139404E0,9.901744445E0
1.271074767E1,8.571475525E0,-3.763324127E0,3.329526215E0,9.935720707E0
1.272068867E1,8.552764435E0,-3.759132843E0,3.346141663E0,9.923584193E0
1.273063067E1,8.533454590E0,-3.781436462E0,3.335663452E0,9.911899900E0
1.274057167E1,8.576714630E0,-3.777694244E0,3.380869446E0,9.962995828E0
1.275051267E1,8.594976654E0,-3.762725372E0,3.367696838E0,9.968606117E0
1.276045467E1,8.581504669E0,-3.776945801E0,3.341351624E0,9.953500522E0
1.277039567E1,8.588989105E0,-3.819307709E0,3.326682129E0,9.971191464E0
1.278033767E1,8.593479767E0,-3.842509460E0,3.343297577E0,9.989515111E0
1.279027867E1,8.572972412E0,-3.868255920E0,3.377276917E0,9.993260690E0
1.280021967E1,8.539292450E0,-3.857178955E0,3.393892365E0,9.965733812E0
1.281016167E1,8.521778870E0,-3.857478333E0,3.371738434E0,9.943313042E0
1.282010267E1,8.561296692E0,-3.820056152E0,3.392994232E0,9.970007017E0
1.283004467E1,8.626560974E0,-3.745810547E0,3.476370850E0,1.002665474E1
1.283998567E1,8.652307434E0,-3.677103424E0,3.478616180E0,1.002418496E1
1.284992667E1,8.696016541E0,-3.642525330E0,3.479664001E0,1.004971423E1
1.285986867E1,8.707841949E0,-3.660038910E0,3.468736725E0,1.006253103E1
1.286980967E1,8.656798096E0,-3.703149261E0,3.432062988E0,1.002160287E1
1.287975067E1,8.629854126E0,-3.747008057E0,3.371888123E0,9.994202376E0
1.288969267E1,8.563542023E0,-3.840563507E0,3.329226837E0,9.958309664E0
1.289963367E1,8.483757935E0,-3.905977478E0,3.285817108E0,9.900878891E0
1.290957567E1,8.433163147E0,-3.928131409E0,3.217409363E0,9.843788906E0
1.291951667E1,8.365054779E0,-3.965254211E0,3.144061890E0,9.776630687E0
1.292945767E1,8.305179291E0,-3.984414368E0,3.113675079E0,9.723504173E0
1.293939967E1,8.276289368E0,-3.982019348E0,3.092119904E0,9.690957088E0
1.294934067E1,8.301736450E0,-3.942950592E0,3.141217804E0,9.712514440E0
1.295928267E1,8.351582794E0,-3.947590942E0,3.211870880E0,9.780006338E0
1.296922367E1,8.350235596E0,-3.952081604E0,3.232976990E0,9.787620943E0
1.297916467E1,8.389154663E0,-3.937412109E0,3.298840027E0,9.836842766E0
1.298910667E1,8.402476959E0,-3.941603394E0,3.337908783E0,9.863036622E0
1.299904767E1,8.420289917E0,-3.939208374E0,3.292104034E0,9.861875779E0
1.300898967E1,8.440647583E0,-3.935166779E0,3.260220337E0,9.867071797E0
1.301893067E1,8.436156921E0,-3.908073120E0,3.271297302E0,9.856123231E0
1.302887167E1,8.393046570E0,-3.933071136E0,3.308420105E0,9.841642286E0
1.303881367E1,8.381819916E0,-3.986959076E0,3.326532440E0,9.859846137E0
1.304875467E1,8.377778320E0,-4.004472656E0,3.320395203E0,9.861439811E0
1.305869667E1,8.396190033E0,-3.984264679E0,3.316952362E0,9.867752787E0
1.306863767E1,8.392447815E0,-3.980522461E0,3.263363800E0,9.845165447E0
1.307857867E1,8.374335480E0,-3.970044250E0,3.207529907E0,9.807088976E0
1.308852067E1,8.394693146E0,-3.982169037E0,3.179837494E0,9.820382362E0
1.309846167E1,8.415948944E0,-4.015848999E0,3.188968506E0,9.855189493E0
1.310840367E1,8.393046570E0,-4.014501801E0,3.219804382E0,9.845130557E0
1.311834467E1,8.371192017E0,-4.018693085E0,3.253484344E0,9.839304359E0
1.312828567E1,8.338859253E0,-4.009412384E0,3.282973022E0,9.817834444E0
1.313822767E1,8.381520538E0,-4.009711761E0,3.292104034E0,9.857262496E0
1.314816867E1,8.395441589E0,-4.022884369E0,3.299289093E0,9.876859149E0
1.315811067E1,8.378826141E0,-4.025129700E0,3.284170532E0,9.858609065E0
1.316805167E1,8.403225403E0,-3.971391449E0,3.222498779E0,9.837207205E0
1.317799267E1,8.404422913E0,-3.931125183E0,3.175197144E0,9.806627687E0
1.318793467E1,8.377029877E0,-3.923491058E0,3.178041229E0,9.781020279E0
1.319787567E1,8.385562134E0,-3.931723938E0,3.166365509E0,9.787848383E0
1.320781767E1,8.371641083E0,-3.935765533E0,3.221900024E0,9.795675807E0
1.321775867E1,8.383466492E0,-3.932023315E0,3.255430298E0,9.815352474E0
1.322769967E1,8.395890656E0,-3.936513977E0,3.260220337E0,9.829351903E0
1.323764167E1,8.445587311E0,-3.940705261E0,3.273991699E0,9.878062797E0
1.324758267E1,8.425379333E0,-3.944148102E0,3.265758820E0,9.859437196E0
1.325752467E1,8.429720306E0,-3.925736389E0,3.236719208E0,9.846214596E0
1.326746567E1,8.456963654E0,-3.909270630E0,3.223845978E0,9.858793739E0
1.327740667E1,8.449928284E0,-3.891906738E0,3.182980957E0,9.832578188E0
1.328734867E1,8.484356689E0,-3.844605103E0,3.136427765E0,9.828655857E0
1.329728967E1,8.480315094E0,-3.819756775E0,3.106490021E0,9.805945450E0
1.330723067E1,8.489446106E0,-3.820205841E0,3.092269592E0,9.809525936E0
1.331717267E1,8.511300659E0,-3.820056152E0,3.110082550E0,9.834006375E0
1.332711367E1,8.516390076E0,-3.824247437E0,3.172802124E0,9.860042682E0
1.333705567E1,8.526568909E0,-3.817062378E0,3.202440491E0,9.875624924E0
1.334699667E1,8.491990814E0,-3.825894012E0,3.234324188E0,9.859626055E0
1.335693767E1,8.475225677E0,-3.838467865E0,3.291056213E0,9.868856916E0
1.336687967E1,8.450227661E0,-3.823498993E0,3.326981506E0,9.853643895E0
1.337682067E1,8.423882446E0,-3.779340820E0,3.298390961E0,9.804315144E0
1.338676267E1,8.412057037E0,-3.736380157E0,3.318598938E0,9.784494836E0
1.339670367E1,8.398585052E0,-3.692671051E0,3.327280884E0,9.759244256E0
1.340664467E1,8.383765869E0,-3.683390350E0,3.328029327E0,9.743237338E0
1.341658667E1,8.423433380E0,-3.683540039E0,3.359164581E0,9.788088874E0
1.342652767E1,8.480614471E0,-3.741469574E0,3.350482635E0,9.856223936E0
1.343646967E1,8.522826691E0,-3.742816772E0,3.370540924E0,9.899888803E0
1.344641067E1,8.577313385E0,-3.783083038E0,3.375630341E0,9.963779523E0
1.345635167E1,8.572673035E0,-3.848197632E0,3.387006683E0,9.988551559E0
1.346629367E1,8.545579376E0,-3.880380707E0,3.361260223E0,9.969069746E0
1.347623467E1,8.536448364E0,-3.933969269E0,3.385210419E0,9.990331049E0
1.348617667E1,8.543334045E0,-3.958069153E0,3.373385010E0,1.000172957E1
1.349611767E1,8.554411011E0,-3.949387207E0,3.334915009E0,9.994861938E0
1.350605867E1,8.574169922E0,-3.913461914E0,3.179238739E0,9.946815217E0
1.351600067E1,8.616531830E0,-3.878584442E0,2.987786865E0,9.910343506E0
1.352594167E1,8.582103424E0,-3.850892029E0,2.873125305E0,9.835482582E0
1.353588367E1,8.533753967E0,-3.918850708E0,2.901865540E0,9.828691228E0
1.354582467E1,8.485404510E0,-3.964505768E0,2.968776398E0,9.825122340E0
1.355576567E1,8.433312836E0,-3.794758759E0,3.100053406E0,9.753527082E0
1.356570767E1,8.692723389E0,-3.923041992E0,3.033591614E0,1.000781577E1
1.357564962E1,8.412655792E0,-4.217928772E0,2.999013519E0,9.877134336E0
1.358559063E1,8.477620697E0,-3.955075378E0,3.179987183E0,9.880536039E0
1.359553262E1,8.419840851E0,-3.969445496E0,3.297792206E0,9.875507629E0
1.360547363E1,8.472531281E0,-3.956272888E0,3.276536407E0,9.908156857E0
1.361541562E1,8.408314819E0,-3.907773743E0,3.384911041E0,9.870566168E0
1.362535663E1,8.417745209E0,-3.972888336E0,3.478017426E0,9.936744001E0
1.363529763E1,8.397088165E0,-3.911216583E0,3.488495636E0,9.898399195E0
1.364523962E1,8.502469025E0,-3.855682068E0,3.444487152E0,9.951017810E0
1.365518063E1,8.605754242E0,-3.795507202E0,3.226839752E0,9.943710363E0
1.366512262E1,8.690328369E0,-3.742667084E0,2.945275269E0,9.909793664E0
1.367506363E1,8.745862885E0,-3.731290741E0,2.727029114E0,9.891882327E0
1.368500463E1,8.754993896E0,-3.725153503E0,2.672243042E0,9.882690404E0
1.369494663E1,8.730295258E0,-3.733536072E0,2.736459503E0,9.881576671E0
1.370488763E1,8.694369965E0,-3.722459106E0,2.902164917E0,9.892994091E0
1.371482963E1,8.630602570E0,-3.730392609E0,3.074007568E0,9.892049952E0
1.372477063E1,8.555309143E0,-3.767216034E0,3.226989441E0,9.889322122E0
1.373471163E1,8.459208984E0,-3.794908447E0,3.343147888E0,9.855769101E0
1.374465363E1,8.415350189E0,-3.808530121E0,3.423530731E0,9.851070153E0
1.375459463E1,8.407117310E0,-3.834126892E0,3.503763885E0,9.882130937E0
1.376453663E1,8.427924042E0,-3.854634247E0,3.515888672E0,9.912092715E0
1.377447763E1,8.476423187E0,-3.884122925E0,3.485950928E0,9.954296299E0
1.378441863E1,8.524024200E0,-3.872297516E0,3.396287384E0,9.959339567E0
1.379436063E1,8.555608521E0,-3.859274597E0,3.257675629E0,9.935033371E0
1.380430163E1,8.590336304E0,-3.864064636E0,3.119662628E0,9.922558553E0
1.381424363E1,8.589288483E0,-3.836372223E0,3.061733093E0,9.892817496E0
1.382418463E1,8.613538055E0,-3.808979187E0,2.984643402E0,9.879749821E0
1.383412562E1,8.627159729E0,-3.802243195E0,2.962788849E0,9.882462045E0
1.384406763E1,8.627159729E0,-3.832180939E0,3.010539551E0,9.908422888E0
1.385400862E1,8.602610779E0,-3.842359772E0,3.118465118E0,9.924387413E0
1.386395063E1,8.566535797E0,-3.849395142E0,3.238365784E0,9.934303774E0
1.387389163E1,8.504265289E0,-3.872297516E0,3.307222595E0,9.912362859E0
1.388383262E1,8.474477234E0,-3.893852692E0,3.341052246E0,9.906638344E0
1.389377463E1,8.452622681E0,-3.884272614E0,3.343147888E0,9.884889565E0
1.390371562E1,8.427025909E0,-3.911965027E0,3.284619598E0,9.854286476E0
1.391365663E1,8.467591553E0,-3.971092072E0,3.204087067E0,9.886144490E0
1.392359862E1,8.503367157E0,-4.006268921E0,3.112477570E0,9.901765514E0
1.393353962E1,8.492589569E0,-4.007316742E0,3.035687256E0,9.869045657E0
1.394348162E1,8.478518829E0,-3.957769775E0,2.977308655E0,9.819042212E0
1.395342262E1,8.474177856E0,-3.950734406E0,2.919379120E0,9.795037883E0
1.396336363E1,8.528664551E0,-3.939058685E0,2.893932037E0,9.830012461E0
1.397330562E1,8.515641632E0,-3.898043976E0,2.890040131E0,9.801185194E0
1.398324663E1,8.534951477E0,-3.869004364E0,2.925067291E0,9.816853373E0
1.399318862E1,8.539442139E0,-3.864214325E0,3.002755737E0,9.842294773E0
1.400312963E1,8.520132294E0,-3.869154053E0,3.061583405E0,9.845623410E0
1.401307063E1,8.527317352E0,-3.883673859E0,3.113226013E0,9.873714604E0
1.402301262E1,8.530460815E0,-3.881877594E0,3.153043213E0,9.888347530E0
1.403295363E1,8.497529297E0,-3.849395142E0,3.175795898E0,9.854518085E0
1.404289562E1,8.437204742E0,-3.816164246E0,3.148402863E0,9.780693943E0
1.405283663E1,8.425529022E0,-3.825894012E0,3.128344574E0,9.767985671E0
1.406277763E1,8.386460266E0,-3.856280823E0,3.132984924E0,9.747779856E0
1.407271963E1,8.415050812E0,-3.871549072E0,3.151546326E0,9.784386369E0
1.408266063E1,8.424481201E0,-3.875440979E0,3.177592163E0,9.802449604E0
1.409260263E1,8.347840576E0,-3.901935883E0,3.199596405E0,9.754432996E0
1.410254363E1,8.318202209E0,-3.929478607E0,3.232976990E0,9.751175844E0
1.411248463E1,8.275241547E0,-3.919449463E0,3.294499054E0,9.731157730E0
1.412242663E1,8.245303802E0,-3.877686310E0,3.322191467E0,9.698373166E0
1.413236763E1,8.227041779E0,-3.876488800E0,3.325484619E0,9.683502971E0
1.414230862E1,8.212671661E0,-3.905229034E0,3.365601196E0,9.696703617E0
1.415225063E1,8.267457733E0,-3.914360046E0,3.439547424E0,9.772592206E0
1.416219163E1,8.294551392E0,-3.913312225E0,3.411705322E0,9.785362976E0
1.417213363E1,8.360414429E0,-3.915707245E0,3.383863220E0,9.832589839E0
1.418207463E1,8.405620422E0,-3.917204132E0,3.341800690E0,9.857310726E0
1.419201562E1,8.451724548E0,-3.938459930E0,3.321443024E0,9.898237127E0
1.420195763E1,8.528514862E0,-3.939358063E0,3.286116486E0,9.952520749E0
1.421189862E1,8.581354980E0,-3.952830048E0,3.264860687E0,9.996190974E0
1.422184063E1,8.599018250E0,-3.947291565E0,3.296594696E0,1.001956896E1
1.423178162E1,8.602461090E0,-3.966751099E0,3.334615631E0,1.004276419E1
1.424172262E1,8.594677277E0,-3.973038025E0,3.379222870E0,1.005348973E1
1.425166463E1,8.546776886E0,-3.984114990E0,3.427422638E0,1.003333411E1
1.426160562E1,8.543932800E0,-4.004921722E0,3.451821899E0,1.004754996E1
1.427154763E1,8.536448364E0,-4.034410400E0,3.486250305E0,1.006485763E1
1.428148862E1,8.518635406E0,-4.042942657E0,3.510050812E0,1.006146069E1
1.429142963E1,8.491242371E0,-4.061803436E0,3.489094391E0,1.003858674E1
1.430137162E1,8.466693420E0,-4.036655731E0,3.370391235E0,9.966896410E0
1.431131262E1,8.470884705E0,-4.004472656E0,3.254681854E0,9.918903312E0
1.432125462E1,8.474477234E0,-3.987557831E0,3.154091034E0,9.882594401E0
1.433119562E1,8.482261047E0,-4.010310516E0,3.061733093E0,9.869425133E0
1.434113663E1,8.541986847E0,-3.975882111E0,3.008743286E0,9.890688248E0
1.435107862E1,8.584348755E0,-3.964655457E0,2.993175659E0,9.918096438E0
1.436101963E1,8.561745758E0,-3.955225067E0,2.952909393E0,9.882660049E0
1.437096063E1,8.568182373E0,-3.939507751E0,2.929408264E0,9.874963457E0
1.438090263E1,8.550219727E0,-3.955225067E0,2.955903168E0,9.873572112E0
1.439084363E1,8.527017975E0,-3.962110748E0,2.975811768E0,9.862241774E0
1.440078562E1,8.478518829E0,-3.999832306E0,3.026705933E0,9.851136423E0
1.441072663E1,8.441096649E0,-4.016597443E0,3.074157257E0,9.840508650E0
1.442066763E1,8.427175598E0,-4.056414642E0,3.121159515E0,9.859686863E0
1.443060963E1,8.433312836E0,-4.078867950E0,3.205134888E0,9.901051398E0
1.444055063E1,8.444389801E0,-4.087250519E0,3.243155823E0,9.926298182E0
1.445049263E1,8.461005249E0,-4.066144409E0,3.263513489E0,9.938443564E0
1.446043363E1,8.505462799E0,-4.033063202E0,3.241509247E0,9.955695778E0
1.447037463E1,8.545878754E0,-4.006867676E0,3.214265900E0,9.970884490E0
1.448031663E1,8.559650116E0,-4.006268921E0,3.171454926E0,9.968747520E0
1.449025763E1,8.602760468E0,-3.994443512E0,3.136427765E0,9.990007295E0
1.450019963E1,8.640032959E0,-3.975283356E0,3.085683289E0,9.998724351E0
1.451014063E1,8.609047394E0,-3.943848724E0,3.046913910E0,9.947528546E0
1.452008162E1,8.576265564E0,-3.964056702E0,3.030298462E0,9.922136127E0
1.453002363E1,8.584348755E0,-3.986959076E0,3.081042938E0,9.953879234E0
1.453996463E1,8.571475525E0,-3.989803162E0,3.124302979E0,9.957408852E0
1.454990663E1,8.566685486E0,-3.973038025E0,3.192111969E0,9.968084579E0
1.455984763E1,8.533005524E0,-3.968697052E0,3.241359558E0,9.953348750E0
1.456978862E1,8.514294434E0,-3.959266663E0,3.257975006E0,9.938984020E0
1.457972975E1,8.521030426E0,-3.977528687E0,3.280727692E0,9.959511442E0
1.458967075E1,8.481961670E0,-3.966601410E0,3.282673645E0,9.922376065E0
1.459961175E1,8.466094666E0,-3.959715729E0,3.280727692E0,9.905416787E0
1.460955375E1,8.476722565E0,-3.944148102E0,3.249592438E0,9.898029132E0
1.461949475E1,8.491691437E0,-3.930676117E0,3.223396912E0,9.896935174E0
1.462943675E1,8.466843109E0,-3.935466156E0,3.179538116E0,9.863305163E0
1.463937775E1,8.440048828E0,-3.912414093E0,3.148103485E0,9.820996070E0
1.464931875E1,8.448431396E0,-3.917503510E0,3.151396637E0,9.831283109E0
1.465926075E1,8.417595520E0,-3.938759308E0,3.181633759E0,9.823061264E0
1.466920175E1,8.422535248E0,-3.950435028E0,3.197500763E0,9.837126005E0
1.467914375E1,8.411458282E0,-3.960913239E0,3.234174500E0,9.843848273E0
1.468908475E1,8.440647583E0,-4.020788727E0,3.247496796E0,9.897348587E0
1.469902575E1,8.416398010E0,-4.090393982E0,3.312461700E0,9.926705441E0
1.470896775E1,8.374485168E0,-4.094884644E0,3.396886139E0,9.921638853E0
1.471890875E1,8.343349915E0,-4.062102814E0,3.397784271E0,9.882160949E0
1.472885075E1,8.350684662E0,-4.048032074E0,3.400628357E0,9.883560655E0
1.473879175E1,8.415649567E0,-4.051774292E0,3.415297852E0,9.945063698E0
1.474873275E1,8.424181824E0,-3.979474640E0,3.354673920E0,9.902368147E0
1.475867475E1,8.362659760E0,-3.950435028E0,3.254681854E0,9.804742176E0
1.476861575E1,8.343050537E0,-3.959715729E0,3.202440491E0,9.774531498E0
1.477855775E1,8.366551666E0,-4.025728455E0,3.221600647E0,9.827735604E0
1.478849875E1,8.378077698E0,-4.031865692E0,3.247796173E0,9.848670309E0
1.479843975E1,8.383765869E0,-3.976480865E0,3.219654694E0,9.821716070E0
1.480838175E1,8.365204468E0,-3.961062927E0,3.141966248E0,9.774385771E0
1.481832275E1,8.355025635E0,-3.996090088E0,3.100951538E0,9.766836222E0
1.482826475E1,8.372090149E0,-4.027075653E0,3.132535858E0,9.804183427E0
1.483820575E1,8.403075714E0,-4.049528961E0,3.201242981E0,9.861963440E0
1.484814675E1,8.419691162E0,-4.019890594E0,3.222498779E0,9.870927922E0
1.485808875E1,8.433761902E0,-3.951033783E0,3.184178467E0,9.842662256E0
1.486802975E1,8.416248322E0,-3.956721954E0,3.171903992E0,9.825978799E0
1.487797075E1,8.426726532E0,-4.001329193E0,3.172652435E0,9.853226823E0
1.488791275E1,8.438102875E0,-4.033212891E0,3.197051697E0,9.883801187E0
1.489785375E1,8.447084198E0,-4.032015381E0,3.209924927E0,9.895150202E0
1.490779575E1,8.445138245E0,-4.015549622E0,3.200045471E0,9.883586887E0
1.491773675E1,8.430768127E0,-3.993545380E0,3.189118195E0,9.858840235E0
1.492767775E1,8.429271240E0,-3.996988220E0,3.133583679E0,9.841131802E0
1.493761975E1,8.439001007E0,-3.996090088E0,3.067421265E0,9.828252500E0
1.494756075E1,8.445886688E0,-4.001478882E0,3.050057373E0,9.830955456E0
1.495750275E1,8.452173615E0,-4.016447754E0,3.050955505E0,9.842734420E0
1.496744375E1,8.464298401E0,-4.006867676E0,3.051254883E0,9.849339691E0
1.497738475E1,8.484506378E0,-3.972588959E0,3.024460602E0,9.844575839E0
1.498732675E1,8.467741241E0,-3.946992188E0,2.986140289E0,9.808079470E0
1.499726775E1,8.461304626E0,-3.984564056E0,2.971770172E0,9.813350328E0
1.500720975E1,8.453969879E0,-4.026476898E0,3.022065582E0,9.839461536E0
1.501715075E1,8.464897156E0,-4.004772034E0,3.028502197E0,9.841976857E0
1.502709175E1,8.461154938E0,-3.969146118E0,2.998863831E0,9.815215131E0
1.503703375E1,8.524024200E0,-3.987258453E0,3.025807800E0,9.884975032E0
1.504697475E1,8.500074005E0,-3.958218842E0,3.043770447E0,9.858158703E0
1.505691575E1,8.455167389E0,-3.932023315E0,3.049608307E0,9.810747869E0
1.506685775E1,8.454568634E0,-3.942800903E0,3.026107178E0,9.807279664E0
1.507679875E1,8.437653809E0,-3.932322693E0,3.070115662E0,9.802182090E0
1.508674075E1,8.449628906E0,-3.969744873E0,3.032094727E0,9.815737437E0
1.509668175E1,8.494834900E0,-3.971241760E0,3.058290253E0,9.863372667E0
1.510662275E1,8.490493927E0,-3.857328644E0,3.121758270E0,9.834268966E0
1.511656475E1,8.728349304E0,-3.919449463E0,3.168610840E0,1.007900096E1
1.512650575E1,8.578510895E0,-4.205205231E0,2.930456085E0,9.993106277E0
1.513644775E1,8.580307159E0,-4.060007172E0,2.963387604E0,9.944194048E0
1.514638875E1,8.502019958E0,-3.964505768E0,3.088227997E0,9.876173425E0
1.515632975E1,8.501870270E0,-4.025279388E0,3.084485779E0,9.899430527E0
1.516627175E1,8.479866028E0,-4.024830322E0,3.111729126E0,9.888895041E0
1.517621275E1,8.418793030E0,-4.031117249E0,3.165317688E0,9.856227393E0
1.518615475E1,8.367599487E0,-4.058061218E0,3.178490295E0,9.827888002E0
1.519609575E1,8.384813690E0,-4.075874176E0,3.190764771E0,9.853873895E0
1.520603675E1,8.358019409E0,-4.062102814E0,3.182681580E0,9.822760801E0
1.521597875E1,8.378377075E0,-4.036655731E0,3.177741852E0,9.828012779E0
1.522591975E1,8.383915558E0,-4.018842773E0,3.130440216E0,9.810239205E0
1.523586175E1,8.399932251E0,-3.986959076E0,3.074306946E0,9.793164335E0
1.524580275E1,8.412057037E0,-4.011508026E0,3.063679047E0,9.810251248E0
1.525574375E1,8.373437347E0,-4.041146393E0,3.060086517E0,9.788230007E0
1.526568575E1,8.350534973E0,-4.066144409E0,3.052452393E0,9.776626734E0
1.527562675E1,8.339757385E0,-4.067341919E0,3.045267334E0,9.765678505E0
1.528556775E1,8.355474701E0,-4.061354370E0,3.093467102E0,9.791736082E0
1.529550975E1,8.383616180E0,-4.029470673E0,3.148552551E0,9.820134283E0
1.530545075E1,8.418493652E0,-4.015848999E0,3.165916443E0,9.849929212E0
1.531539275E1,8.416248322E0,-4.025728455E0,3.154240723E0,9.848297312E0
1.532533375E1,8.424930267E0,-4.029171295E0,3.185375977E0,9.867131875E0
1.533527475E1,8.442294159E0,-4.021986237E0,3.288511505E0,9.912770141E0
1.534521675E1,8.436456299E0,-4.004472656E0,3.284170532E0,9.899261196E0
1.535515775E1,8.419691162E0,-4.004772034E0,3.243305511E0,9.871597082E0
1.536509975E1,8.425678711E0,-4.030518494E0,3.222947845E0,9.880512835E0
1.537504075E1,8.437803497E0,-4.034410400E0,3.211421814E0,9.888691784E0
1.538498175E1,8.456065521E0,-4.061953125E0,3.180585938E0,9.905586010E0
1.539492375E1,8.467441864E0,-4.042493591E0,3.149300995E0,9.897344235E0
1.540486475E1,8.505612488E0,-4.037404175E0,3.159779205E0,9.931277908E0
1.541480675E1,8.520731049E0,-4.026925964E0,3.165018311E0,9.941646304E0
1.542474775E1,8.454269257E0,-4.034260712E0,3.156486053E0,9.885005430E0
1.543468875E1,8.379724274E0,-4.090992737E0,3.139271851E0,9.839259537E0
1.544463075E1,8.352780304E0,-4.076323242E0,3.132236481E0,9.807968972E0
1.545457175E1,8.336164856E0,-4.042643280E0,3.145708466E0,9.784175537E0
1.546451275E1,8.351133728E0,-4.087100830E0,3.162323914E0,9.820698563E0
1.547445475E1,8.359516296E0,-4.121080170E0,3.172652435E0,9.845330769E0
1.548439575E1,8.395142212E0,-4.109554138E0,3.176244965E0,9.871949151E0
1.549433775E1,8.389903107E0,-4.119882660E0,3.138822784E0,9.859823312E0
1.550427875E1,8.396788788E0,-4.161346436E0,3.096909943E0,9.869838768E0
1.551421975E1,8.434959412E0,-4.151017914E0,3.051404572E0,9.883853492E0
1.552416175E1,8.399782562E0,-4.151616669E0,3.033142548E0,9.848462914E0
1.553410275E1,8.356971588E0,-4.186494141E0,3.078947296E0,9.841017415E0
1.554404475E1,8.306077423E0,-4.266427917E0,3.096909943E0,9.837895127E0
1.555398575E1,8.264164581E0,-4.294868774E0,3.177741852E0,9.840749834E0
1.556392675E1,8.256829834E0,-4.314328308E0,3.245999908E0,9.865352658E0
1.557386875E1,8.280480652E0,-4.269122314E0,3.283571777E0,9.877935451E0
1.558380979E1,8.304131470E0,-4.213887177E0,3.247197418E0,9.862035068E0
1.559375179E1,8.324938202E0,-4.180656281E0,3.221301270E0,9.856939934E0
1.560369279E1,8.370593262E0,-4.112248535E0,3.180585938E0,9.853605760E0
1.561363379E1,8.418643341E0,-4.034560089E0,3.171155548E0,9.859384277E0
1.562357579E1,8.484057312E0,-4.003724213E0,3.133433990E0,9.890775734E0
1.563351679E1,8.497529297E0,-3.959715729E0,3.067720642E0,9.863988176E0
1.564345779E1,8.534502411E0,-3.906576233E0,3.016826477E0,9.859021821E0
1.565339979E1,8.576265564E0,-3.878285065E0,3.029849396E0,9.888043964E0
1.566334079E1,8.602161713E0,-3.873495026E0,3.070415039E0,9.921118806E0
1.567328279E1,8.614885254E0,-3.897295532E0,3.109334106E0,9.953548060E0
1.568322379E1,8.603957977E0,-3.915258179E0,3.158581696E0,9.966643257E0
1.569316479E1,8.598718872E0,-3.903881836E0,3.173400879E0,9.962365822E0
1.570310679E1,8.577463074E0,-3.948339386E0,3.211870880E0,9.973884461E0
1.571304779E1,8.555309143E0,-3.963008881E0,3.263812866E0,9.977536186E0
1.572298979E1,8.514743500E0,-3.956422577E0,3.284020844E0,9.946804983E0
1.573293079E1,8.499325562E0,-3.967349854E0,3.282673645E0,9.937522132E0
1.574287179E1,8.483608246E0,-3.988455963E0,3.263363800E0,9.926174144E0
1.575281379E1,8.453371124E0,-3.983665924E0,3.233575745E0,9.888634368E0
1.576275479E1,8.430768127E0,-3.969146118E0,3.221001892E0,9.859352175E0
1.577269579E1,8.402476959E0,-4.030967560E0,3.209924927E0,9.856669648E0
1.578263779E1,8.393495636E0,-4.087100830E0,3.223546600E0,9.876558858E0
1.579257879E1,8.386310577E0,-4.100273438E0,3.250789948E0,9.884841053E0
1.580252079E1,8.378377075E0,-4.114793243E0,3.290307770E0,9.897214309E0
1.581246179E1,8.420140228E0,-4.160597992E0,3.297492828E0,9.954034160E0
1.582240279E1,8.464597778E0,-4.175566864E0,3.276985474E0,9.991166497E0
1.583234479E1,8.547076263E0,-4.196822662E0,3.250041504E0,1.006124261E1
1.584228579E1,8.638985138E0,-4.218826904E0,3.242856445E0,1.014626446E1
1.585222779E1,8.762178955E0,-4.302502899E0,3.240910492E0,1.028546606E1
1.586216879E1,8.819809113E0,-4.395758972E0,3.261417847E0,1.038020116E1
1.587210979E1,8.747210083E0,-4.445755005E0,3.281326447E0,1.034628074E1
1.588205179E1,8.574020233E0,-4.478237457E0,3.311413879E0,1.022418190E1
1.589199279E1,8.322243805E0,-4.492158508E0,3.352278900E0,1.003379309E1
1.590193479E1,8.056845703E0,-4.484524384E0,3.343447266E0,9.808280239E0
1.591187579E1,7.862849121E0,-4.459825745E0,3.312611389E0,9.627452217E0
1.592181679E1,7.767048340E0,-4.429139557E0,3.274291077E0,9.521832764E0
1.593175879E1,7.742349701E0,-4.386627960E0,3.211571503E0,9.460479653E0
1.594169979E1,7.772137756E0,-4.312232666E0,3.129542084E0,9.423136926E0
1.595164079E1,7.888595581E0,-4.148024139E0,3.085084534E0,9.431531746E0
1.596158279E1,8.057145081E0,-3.982169037E0,3.028951263E0,9.484186989E0
1.597152379E1,8.254285126E0,-3.829187164E0,2.957699432E0,9.567856772E0
1.598146579E1,8.364456024E0,-3.710334320E0,2.910397797E0,9.602141463E0
1.599140679E1,8.446036377E0,-3.690425720E0,2.931803284E0,9.672137456E0
1.600134779E1,8.526419220E0,-3.720064087E0,2.963088226E0,9.763124160E0
1.601128979E1,8.544381866E0,-3.745361481E0,3.020119629E0,9.805881739E0
1.602123079E1,8.550968170E0,-3.776197357E0,3.042423248E0,9.830313441E0
1.603117279E1,8.494535522E0,-3.807182922E0,3.073708191E0,9.803033081E0
1.604111379E1,8.491092682E0,-3.808081055E0,3.156186676E0,9.826578783E0
1.605105479E1,8.492739258E0,-3.824846191E0,3.250340881E0,9.865129717E0
1.606099679E1,8.484955444E0,-3.826343079E0,3.364852753E0,9.897353399E0
1.607093779E1,8.469088440E0,-3.814966736E0,3.418291626E0,9.897683963E0
1.608087879E1,8.453071747E0,-3.836970978E0,3.444936218E0,9.901734888E0
1.609082079E1,8.394992523E0,-3.881877594E0,3.410358124E0,9.857759160E0
1.610076179E1,8.378975830E0,-3.918401642E0,3.342549133E0,9.835331316E0
1.611070379E1,8.396040344E0,-3.980372772E0,3.297642517E0,9.859579455E0
1.612064479E1,8.389304352E0,-4.045487366E0,3.258124695E0,9.867206903E0
1.613058579E1,8.461903381E0,-4.137695618E0,3.237916718E0,9.960343294E0
1.614052779E1,8.493338013E0,-4.148173828E0,3.215164032E0,9.984058116E0
1.615046879E1,8.513545990E0,-4.107907562E0,3.160976715E0,9.967303731E0
1.616041079E1,8.537795563E0,-4.100572815E0,3.101849670E0,9.966449812E0
1.617035179E1,8.521479492E0,-4.074526978E0,3.069965973E0,9.931871621E0
1.618029279E1,8.473279724E0,-4.052522736E0,3.092269592E0,9.888454937E0
1.619023479E1,8.494236145E0,-4.014801178E0,3.155438232E0,9.910977077E0
1.620017579E1,8.586444397E0,-4.063749390E0,3.070115662E0,9.983320923E0
1.621011679E1,8.603957977E0,-4.067192230E0,2.789000244E0,9.917089688E0
1.622005879E1,8.657396851E0,-4.068389740E0,2.557581482E0,9.901693711E0
1.622999979E1,8.649613037E0,-4.124672699E0,2.403252411E0,9.879491521E0
1.623994179E1,8.549321594E0,-4.189487915E0,2.446213074E0,9.829886424E0
1.624988279E1,8.335715790E0,-4.236490173E0,2.728975067E0,9.740601195E0
1.625982379E1,8.163124695E0,-4.319118347E0,3.163222046E0,9.762036765E0
1.626976579E1,7.964787140E0,-4.381987610E0,3.504212952E0,9.742646355E0
1.627970679E1,7.762108612E0,-4.439617767E0,3.729344788E0,9.688578253E0
1.628964879E1,7.640561371E0,-4.454886017E0,3.817960510E0,9.633328082E0
1.629958979E1,7.650141449E0,-4.458927612E0,3.807931366E0,9.638829853E0
1.630953079E1,7.689808960E0,-4.450395355E0,3.738625488E0,9.639320578E0
1.631947279E1,7.803123322E0,-4.391567688E0,3.624263306E0,9.659704180E0
1.632941379E1,7.950267334E0,-4.299060059E0,3.480262756E0,9.685086315E0
1.633935479E1,8.182733917E0,-4.192930756E0,3.340303802E0,9.782404212E0
1.634929679E1,8.428373108E0,-4.090843048E0,3.248394928E0,9.915873118E0
1.635923779E1,8.594976654E0,-3.974983978E0,3.117716675E0,9.969667927E0
1.636917979E1,8.716972961E0,-3.899091797E0,2.965034180E0,9.998998057E0
1.637912079E1,8.791517944E0,-3.856131134E0,2.888393555E0,1.002513603E1
1.638906179E1,8.801397400E0,-3.848646698E0,2.913690948E0,1.003824051E1
1.639900379E1,8.737480316E0,-3.878883820E0,3.022664337E0,1.002625561E1
1.640894479E1,8.628806305E0,-3.925437012E0,3.176394653E0,9.997741594E0
1.641888679E1,8.510851593E0,-3.962410126E0,3.322341156E0,9.958576183E0
1.642882779E1,8.484506378E0,-4.006867676E0,3.441643066E0,9.994335598E0
1.643876879E1,8.386160889E0,-4.027225342E0,3.436703339E0,9.917518250E0
1.644871079E1,8.333620148E0,-4.009711761E0,3.382066956E0,9.847100592E0
1.645865179E1,8.339458008E0,-3.989204407E0,3.410807190E0,9.853624579E0
1.646859379E1,8.422235870E0,-3.967050476E0,3.472478943E0,9.936279814E0
1.647853479E1,8.466094666E0,-3.937861176E0,3.498225403E0,9.970912220E0
1.648847579E1,8.520431671E0,-3.861220551E0,3.508853302E0,9.990937468E0
1.649841779E1,8.613088989E0,-3.836521912E0,3.486399994E0,1.005281986E1
1.650835879E1,8.658145294E0,-3.865112457E0,3.473526764E0,1.009791872E1
1.651829979E1,8.704399109E0,-3.874393158E0,3.483406219E0,1.014453573E1
1.652824179E1,8.723259888E0,-3.840713196E0,3.465742950E0,1.014187927E1
1.653818279E1,8.766819305E0,-3.827091522E0,3.442391510E0,1.016630757E1
1.654812479E1,8.787626038E0,-3.811224518E0,3.427871704E0,1.017340199E1
1.655806579E1,8.807684326E0,-3.804338837E0,3.352129211E0,1.016292613E1
1.656800679E1,8.803043976E0,-3.810925140E0,3.327580261E0,1.015330114E1
1.657794938E1,8.824299774E0,-3.807631989E0,3.298241272E0,1.016094107E1
1.658789037E1,8.809480591E0,-3.808380432E0,3.216960297E0,1.012223016E1
1.659783238E1,8.771908722E0,-3.825744324E0,3.134930878E0,1.007027775E1
1.660777337E1,8.718469849E0,-3.866459656E0,3.122057648E0,1.003536102E1
1.661771437E1,8.644523621E0,-3.929628296E0,3.182232513E0,1.001480758E1
1.662765637E1,8.554261322E0,-3.966302032E0,3.229833527E0,9.966883324E0
1.663759737E1,8.546327820E0,-3.994892578E0,3.293900299E0,9.992430390E0
1.664753838E1,8.538094940E0,-4.011508026E0,3.352578278E0,1.001154548E1
1.665748037E1,8.521479492E0,-4.007017365E0,3.376079407E0,1.000348505E1
1.666742138E1,8.553812256E0,-3.990701294E0,3.329376526E0,1.000890349E1
1.667736337E1,8.555758209E0,-3.939058685E0,3.255579987E0,9.965740460E0
1.668730438E1,8.575816498E0,-3.881727905E0,3.171305237E0,9.933258128E0
1.669724538E1,8.521629181E0,-3.827839966E0,3.124302979E0,9.850471654E0
1.670718737E1,8.497080231E0,-3.757785645E0,3.057990875E0,9.781238858E0
1.671712838E1,8.459358673E0,-3.745211792E0,2.995720367E0,9.724284089E0
1.672707037E1,8.408314819E0,-3.749253387E0,2.941233673E0,9.664756313E0
1.673701138E1,8.356672211E0,-3.792812805E0,2.932402039E0,9.634229659E0
1.674695238E1,8.340954895E0,-3.819008331E0,2.965183868E0,9.640988983E0
1.675689438E1,8.319848785E0,-3.894002380E0,3.034340057E0,9.674210972E0
1.676683538E1,8.293653259E0,-3.993395691E0,3.099604340E0,9.712849252E0
