"Time (s)","Gyroscope x (rad/s)","Gyroscope y (rad/s)","Gyroscope z (rad/s)","Absolute (rad/s)"
3.274250004E-3,-7.411910295E-1,-3.266636133E-1,-6.703918427E-2,8.127530442E-1
1.321425001E-2,-9.295402169E-1,-3.578958511E-1,-2.393618599E-2,9.963470260E-1
2.315425000E-2,-1.120232463E0,-4.038068950E-1,9.965879470E-2,1.194952993E0
3.309525001E-2,-1.347576380E0,-4.810199440E-1,2.268684059E-1,1.448727566E0
4.303525000E-2,-1.544782400E0,-5.691898465E-1,2.835935950E-1,1.670555319E0
5.297624999E-2,-1.635686040E0,-7.993245125E-1,2.710136175E-1,1.840607747E0
6.291625000E-2,-1.606502533E0,-1.033644319E0,1.168832183E-1,1.913878954E0
7.285724999E-2,-1.396393180E0,-1.387340546E0,3.179495782E-2,1.968664172E0
8.279725000E-2,-1.230421305E0,-1.677089930E0,1.255321503E-1,2.083824738E0
9.273824999E-2,-1.131363630E0,-1.884190083E0,2.353601158E-1,2.210328101E0
1.026782500E-1,-1.051904917E0,-2.036931753E0,3.101959825E-1,2.313399332E0
1.126192500E-1,-9.481731653E-1,-2.164156675E0,3.630016744E-1,2.390476246E0
1.225592500E-1,-7.851766348E-1,-2.191264868E0,3.822840750E-1,2.358873711E0
1.325002500E-1,-6.000102162E-1,-2.136966705E0,3.860942423E-1,2.252933138E0
1.424402500E-1,-4.416421652E-1,-2.054290056E0,3.662312925E-1,2.132904310E0
1.523812500E-1,-3.633460104E-1,-1.931679130E0,2.728667259E-1,1.984404403E0
1.623212500E-1,-3.213859499E-1,-1.893368006E0,1.701055914E-1,1.927969721E0
1.722622500E-1,-2.716982961E-1,-2.072018862E0,1.103469133E-1,2.092667811E0
1.822022500E-1,-2.157426924E-1,-2.425485373E0,9.544090927E-2,2.436931096E0
1.921422500E-1,-1.727440953E-1,-2.791733742E0,9.006345272E-2,2.798522688E0
2.020832500E-1,-1.350413561E-1,-3.144086838E0,1.423495412E-1,3.150203423E0
2.120232500E-1,-1.563383937E-1,-3.552248240E0,4.737820625E-1,3.587112863E0
2.219642500E-1,-1.504129171E-1,-4.087068081E0,9.793139100E-1,4.205449474E0
2.319042500E-1,-7.293116301E-2,-4.616451740E0,1.645679355E0,4.901551404E0
2.418452500E-1,1.285165995E-1,-4.997902870E0,2.404247522E0,5.547608112E0
2.517852500E-1,8.299852610E-1,-4.908005238E0,3.168756485E0,5.900712551E0
2.617262500E-1,1.400965929E0,-4.607478619E0,3.586151361E0,6.004335629E0
2.716662500E-1,1.979841232E0,-4.612488270E0,3.774331093E0,6.280158799E0
2.816072500E-1,2.386532784E0,-4.901119232E0,3.779722929E0,6.633461681E0
2.915472500E-1,2.602570534E0,-5.337810040E0,3.692180395E0,6.992695151E0
3.014882500E-1,2.751750946E0,-5.678894043E0,3.608756781E0,7.269463276E0
3.114282500E-1,3.034914017E0,-5.639694214E0,3.841702938E0,7.468302041E0
3.213692500E-1,3.326024771E0,-5.300714970E0,4.238469601E0,7.558084712E0
3.313092500E-1,3.449609756E0,-4.703528881E0,4.530560970E0,7.385727731E0
3.412492500E-1,3.584120035E0,-4.185082436E0,4.690143585E0,7.235902036E0
3.511902500E-1,3.864224434E0,-3.676704407E0,4.682476521E0,7.097603267E0
3.611302500E-1,4.201836109E0,-3.304918766E0,4.572238922E0,7.034435549E0
3.710712500E-1,4.531675816E0,-3.022831440E0,4.398084641E0,7.001195906E0
3.810112500E-1,4.787715435E0,-2.693603754E0,4.226606369E0,6.931228006E0
3.909522500E-1,4.972748756E0,-2.475989342E0,4.150318623E0,6.934255409E0
4.008922500E-1,5.119622707E0,-2.231966019E0,3.999926567E0,6.869615820E0
4.108332500E-1,5.079194069E0,-1.841583252E0,3.468785763E0,6.420445151E0
4.207732500E-1,4.863881588E0,-1.475474834E0,2.830534458E0,5.817756905E0
4.307142500E-1,4.592892170E0,-9.688825011E-1,2.091564178E0,5.138874633E0
4.406542500E-1,4.243978024E0,-3.045651317E-1,1.224962473E0,4.427713004E0
4.505952500E-1,3.768435717E0,3.351948559E-1,3.691228926E-1,3.801278081E0
4.605352500E-1,3.133420706E0,8.468111753E-1,-3.750706315E-1,3.267429030E0
4.704762500E-1,2.432500124E0,1.157104373E0,-9.804873466E-1,2.866583824E0
4.804162500E-1,1.825986981E0,1.141709805E0,-1.410203695E0,2.574180296E0
4.903572500E-1,1.297855973E0,7.881299257E-1,-1.601976514E0,2.207239828E0
5.002972500E-1,1.020275235E0,3.306769133E-1,-1.739874244E0,2.043886289E0
5.102382500E-1,9.614037275E-1,-2.505478561E-1,-1.627804995E0,1.907044954E0
5.201782500E-1,1.054822922E0,-9.891231656E-1,-1.258564830E0,1.917029333E0
5.301182500E-1,1.420136690E0,-1.445136189E0,-9.721977711E-1,2.247304014E0
5.400592500E-1,1.803022981E0,-1.893246055E0,-6.703074574E-1,2.698996958E0
5.499992500E-1,1.981980920E0,-2.256802082E0,-2.993829250E-1,3.018448963E0
5.599402500E-1,1.941889405E0,-2.280633450E0,2.060865313E-1,3.002448176E0
5.698802500E-1,1.693596482E0,-2.275660276E0,6.747357845E-1,2.915847581E0
5.798212500E-1,1.398572803E0,-2.010000229E0,9.624046087E-1,2.631032010E0
5.897612500E-1,1.289680243E0,-1.515511513E0,8.989542723E-1,2.183613761E0
5.997022500E-1,1.339422464E0,-1.075411916E0,7.339458466E-1,1.867950704E0
6.096422500E-1,1.212123632E0,-9.487527609E-1,5.740081072E-1,1.642820991E0
6.195832500E-1,8.631430268E-1,-9.650908113E-1,4.309023023E-1,1.364585268E0
6.295232500E-1,4.174669683E-1,-1.014809012E0,3.186479211E-1,1.142651521E0
6.394642500E-1,-1.106097549E-1,-1.143812418E0,1.674442142E-1,1.161283312E0
6.494042500E-1,-5.097051859E-1,-1.290224195E0,-4.086184502E-2,1.387857175E0
6.593452500E-1,-6.874505877E-1,-1.345350623E0,-2.299039960E-1,1.528205633E0
6.692852500E-1,-5.809188485E-1,-1.238236427E0,-3.157155812E-1,1.403699571E0
6.792262500E-1,-1.397985071E-1,-1.010153174E0,-4.551509619E-1,1.116743237E0
6.891662500E-1,3.098876774E-1,-9.656061530E-1,-5.904384851E-1,1.173474849E0
6.991062500E-1,4.307652712E-1,-1.010104299E0,-8.602789640E-1,1.394972870E0
7.090472500E-1,4.089076519E-1,-1.138591170E0,-1.131105423E0,1.656198901E0
7.189872500E-1,3.824948668E-1,-1.054667354E0,-1.363270521E0,1.765540162E0
7.289282500E-1,2.442552149E-1,-8.658766150E-1,-1.639062643E0,1.869740429E0
7.388682500E-1,-1.590711623E-2,-7.829048038E-1,-1.976973414E0,2.126409380E0
7.488092500E-1,-2.734995186E-1,-8.988902569E-1,-2.222683907E0,2.413116124E0
7.587492500E-1,-4.377871454E-1,-9.211740494E-1,-2.384489059E0,2.593454701E0
7.686902500E-1,-5.583519340E-1,-9.341061115E-1,-2.608366013E0,2.826284551E0
7.786302500E-1,-7.204188108E-1,-9.363971949E-1,-2.658113003E0,2.908849894E0
7.885712500E-1,-9.060943723E-1,-6.685497165E-1,-2.382711172E0,2.635389585E0
7.985112500E-1,-9.738512635E-1,-3.464907110E-1,-2.063389063E0,2.307816397E0
8.084522500E-1,-8.736985326E-1,-1.920542568E-1,-1.725759625E0,1.943831332E0
8.183922500E-1,-6.623719931E-1,-2.559714615E-1,-1.388278484E0,1.559350889E0
8.283332500E-1,-3.871603608E-1,-4.117370844E-1,-9.977639318E-1,1.146714191E0
8.382732500E-1,-1.238792986E-1,-7.142522931E-1,-6.556022763E-1,9.774030712E-1
8.482142500E-1,1.093262583E-1,-1.235588551E0,-2.948283851E-1,1.274972578E0
8.581542500E-1,3.306991458E-1,-1.543317080E0,-1.667303294E-1,1.587132173E0
8.680942500E-1,5.047907829E-1,-1.635253906E0,-2.609891072E-2,1.711592891E0
8.780352500E-1,5.341432095E-1,-1.669455647E0,3.045190275E-1,1.779079246E0
8.879752500E-1,3.647376597E-1,-1.578982830E0,6.394410729E-1,1.742155339E0
8.979162500E-1,2.586164884E-2,-1.339971662E0,9.514608979E-1,1.643615137E0
9.078562500E-1,-3.591685891E-1,-1.064632416E0,1.237716436E0,1.671641778E0
9.177972500E-1,-6.795037389E-1,-9.253386259E-1,1.595318437E0,1.965456135E0
9.277372500E-1,-8.945038915E-1,-1.105023384E0,2.057473183E0,2.500881802E0
9.376782500E-1,-8.681952357E-1,-1.592373013E0,2.676040173E0,3.232739672E0
9.476182500E-1,-2.352548093E-1,-2.094015837E0,3.473656178E0,4.062823450E0
9.575592500E-1,3.241242468E-1,-2.615931273E0,4.328058720E0,5.067567980E0
9.674992500E-1,5.571956038E-1,-2.923024893E0,5.069199085E0,5.878037158E0
9.774402500E-1,4.284809530E-1,-2.737571239E0,5.505326748E0,6.163320113E0
9.873802500E-1,2.329511009E-2,-2.240774632E0,5.617442131E0,6.047914492E0
9.973212500E-1,-5.930218697E-1,-1.540475368E0,5.347931385E0,5.596883901E0
1.007261250E0,-1.140757680E0,-1.218004346E0,4.859293461E0,5.137859049E0
1.017201250E0,-1.483633995E0,-1.210805416E0,4.261068821E0,4.671608618E0
1.027142250E0,-1.618890524E0,-1.132599592E0,3.459113836E0,3.983598486E0
1.037082250E0,-1.616394520E0,-8.005286455E-1,2.430117607E0,3.026392067E0
1.047023250E0,-1.439455986E0,-1.548667550E-1,1.320173144E0,1.959304565E0
1.056963250E0,-1.219246864E0,4.174796641E-1,4.929830730E-1,1.379813211E0
1.066904250E0,-1.036890388E0,7.400352955E-1,1.147526652E-1,1.279047336E0
1.076844250E0,-9.249287248E-1,8.923433423E-1,1.264050603E-1,1.291413189E0
1.086785250E0,-8.432793617E-1,1.018532991E0,4.038766325E-1,1.382622823E0
1.096724792E0,-7.991508245E-1,1.277976274E0,7.540662289E-1,1.685372741E0
1.106665792E0,-7.487936616E-1,1.591817498E0,1.208178878E0,2.134073826E0
1.116605792E0,-6.236258745E-1,1.866059184E0,1.692163467E0,2.595092158E0
1.126546792E0,-4.127807915E-1,1.951051354E0,2.229005098E0,2.990895033E0
1.136486792E0,-1.638649404E-1,1.745833755E0,2.875801325E0,3.368236998E0
1.146427792E0,1.234390773E-2,1.502255440E0,3.537681580E0,3.843450889E0
1.156367792E0,2.211141214E-2,1.384306669E0,3.992918968E0,4.226132482E0
1.166308792E0,-3.554256260E-2,1.165886641E0,4.327862263E0,4.482292572E0
1.176248792E0,-5.702921376E-2,8.342242837E-1,4.647746086E0,4.722364468E0
1.186188792E0,-3.760917485E-2,5.072059035E-1,4.819965363E0,4.846724500E0
1.196129792E0,3.466311470E-2,1.187039018E-1,4.806287766E0,4.807878350E0
1.206069792E0,1.844302267E-1,-2.594463527E-1,4.598272800E0,4.609277564E0
1.216010792E0,3.795775771E-1,-4.696667790E-1,4.358065605E0,4.399704745E0
1.225950792E0,5.992695093E-1,-6.778679490E-1,4.214561939E0,4.310587111E0
1.235891792E0,7.073839307E-1,-1.123695970E0,4.001658440E0,4.216201481E0
1.245831792E0,8.679302335E-1,-1.552133322E0,3.928757429E0,4.312488339E0
1.255772792E0,1.075036287E0,-1.943287969E0,4.009864330E0,4.583784800E0
1.265712792E0,1.277100682E0,-2.389664173E0,4.138517857E0,4.946595907E0
1.275653792E0,1.506812215E0,-2.782026291E0,4.273907661E0,5.317559594E0
1.285593792E0,1.707854986E0,-3.023342848E0,4.408843517E0,5.612064842E0
1.295534792E0,1.843506694E0,-3.040084362E0,4.551374435E0,5.775434106E0
1.305474792E0,1.408189535E0,-2.371199131E0,4.680838585E0,5.432847591E0
1.315415792E0,9.856288433E-1,-2.072175741E0,4.776360989E0,5.298962239E0
1.325355792E0,6.764464974E-1,-1.710709691E0,4.907713890E0,5.241160476E0
1.335296792E0,5.625429749E-1,-1.666091204E0,5.028658867E0,5.327262383E0
1.345236792E0,6.954498887E-1,-1.979044676E0,5.122074604E0,5.534972143E0
1.355176792E0,1.061600208E0,-2.562355042E0,5.144407272E0,5.844449037E0
1.365117792E0,1.520445347E0,-3.105916023E0,5.076760769E0,6.142635290E0
1.375057792E0,1.713385701E0,-3.275745630E0,4.963169575E0,6.188638964E0
1.384998792E0,1.796751976E0,-3.671701193E0,5.198285103E0,6.613008039E0
1.394938792E0,1.898084402E0,-3.750478983E0,6.277747154E0,7.555059651E0
1.404879792E0,1.565657973E0,-3.614379168E0,6.739917755E0,7.806504532E0
1.414819792E0,3.344713151E-2,-3.859576702E0,3.607361555E0,5.283039695E0
1.424760792E0,-1.776523709E0,-4.866963387E0,-1.253430247E0,5.330521220E0
1.434700792E0,-2.261333227E0,-4.243819714E0,-3.407523632E0,5.893628002E0
1.444641792E0,2.202208191E-1,-5.247266889E-1,-2.743340492E0,2.801740952E0
1.454581792E0,2.031525612E0,2.290872097E0,-1.829925537E0,3.567046222E0
1.464522792E0,2.712261438E0,3.875311375E0,-1.245540977E0,4.891397825E0
1.474462792E0,2.631147861E0,4.370716572E0,-9.009612799E-1,5.180524457E0
1.484403792E0,2.222306490E0,4.601516247E0,-6.609358788E-1,5.152614302E0
1.494343792E0,1.463620305E0,4.808822632E0,-4.427946210E-1,5.046090227E0
1.504283792E0,4.660950005E-1,4.680748463E0,-2.956933379E-1,4.713182075E0
1.514224792E0,-4.867191911E-1,4.091351986E0,-2.808523774E-1,4.129762064E0
1.524164792E0,-1.181606889E0,3.173746347E0,-3.967787325E-1,3.409735192E0
1.534105792E0,-1.480476856E0,2.204551458E0,-5.407007337E-1,2.710021428E0
1.544045792E0,-1.335256577E0,1.229264379E0,-5.584589839E-1,1.898914815E0
1.553986792E0,-9.565409422E-1,3.299767077E-1,-4.052030742E-1,1.089974648E0
1.563926792E0,-6.502020359E-1,-3.402594328E-1,-2.195794135E-1,7.659988825E-1
1.573867792E0,-5.147191286E-1,-7.918738723E-1,-8.750754595E-2,9.485028105E-1
1.583807792E0,-4.880675375E-1,-1.073688745E0,-4.360426962E-2,1.180219800E0
1.593748792E0,-4.938329756E-1,-1.240187407E0,-2.845998481E-2,1.335195035E0
1.603688792E0,-4.570427537E-1,-1.313642502E0,6.573898718E-3,1.390894646E0
1.613629792E0,-3.444384038E-1,-1.311554074E0,9.678296000E-2,1.359477416E0
1.623569792E0,-1.598882526E-1,-1.243153214E0,2.176310867E-1,1.272146791E0
1.633509792E0,4.924274981E-2,-1.123368025E0,3.331781924E-1,1.172769489E0
1.643450792E0,2.292058617E-1,-1.003983617E0,3.870733976E-1,1.100156464E0
1.653390792E0,3.680878580E-1,-8.698445559E-1,3.843670487E-1,1.019733421E0
1.663331792E0,4.903450608E-1,-6.818339229E-1,3.473363221E-1,9.088334818E-1
1.673271792E0,5.762615800E-1,-4.612121582E-1,2.816708386E-1,7.900205850E-1
1.683212792E0,5.851981044E-1,-2.152940035E-1,1.809817851E-1,6.492786273E-1
1.693152792E0,5.091414452E-1,9.027349204E-2,8.231354505E-2,5.235931954E-1
1.703093792E0,4.105996788E-1,4.603431523E-1,1.592333312E-3,6.168552906E-1
1.713033792E0,3.546199501E-1,8.124192953E-1,-3.501563147E-2,8.871338765E-1
1.722974792E0,3.499900699E-1,1.118916631E0,-5.869464017E-3,1.172391541E0
1.732914792E0,3.215021491E-1,1.350427151E0,2.947651222E-2,1.388483340E0
1.742855792E0,2.573282123E-1,1.461683393E0,3.351679444E-2,1.484540173E0
1.752795792E0,2.067956328E-1,1.438118219E0,-1.041898690E-2,1.452947694E0
1.762736792E0,1.759887189E-1,1.271649599E0,-6.858109683E-2,1.285600287E0
1.772676792E0,1.698050052E-1,9.646282792E-1,-1.192392930E-1,9.866911704E-1
1.782616792E0,1.689144522E-1,5.677022338E-1,-1.422133148E-1,6.091326172E-1
1.792557792E0,1.771581769E-1,1.586088836E-1,-1.447116137E-1,2.783581303E-1
1.802497792E0,1.756026149E-1,-2.210284621E-1,-1.427762955E-1,3.163462185E-1
1.812438792E0,1.508621126E-1,-5.582320690E-1,-1.467662454E-1,5.965926170E-1
1.822378792E0,9.602389485E-2,-8.186812401E-1,-1.765827239E-1,8.429952667E-1
1.832319792E0,5.196497217E-2,-9.842551351E-1,-2.225353867E-1,1.010435811E0
1.842259792E0,4.425059259E-2,-1.046467066E0,-2.574307621E-1,1.078574073E0
1.852200792E0,8.476056159E-2,-1.021890283E0,-2.699410021E-1,1.060335912E0
1.862140792E0,1.373111308E-1,-9.215442538E-1,-2.485371828E-1,9.642970961E-1
1.872081792E0,1.487027109E-1,-7.688311934E-1,-1.950809062E-1,8.070132962E-1
1.882021792E0,7.946798205E-2,-5.796173215E-1,-1.235441491E-1,5.979419339E-1
1.891962792E0,-5.486161262E-2,-4.045876861E-1,-7.005331665E-2,4.142565140E-1
1.901902792E0,-2.266086191E-1,-2.944854200E-1,-7.958343625E-2,3.800087527E-1
1.911843792E0,-3.860030174E-1,-2.687804103E-1,-1.545133591E-1,4.950915234E-1
1.921783792E0,-4.897802770E-1,-3.027498126E-1,-2.391028106E-1,6.234679806E-1
1.931723792E0,-5.259448290E-1,-3.724404573E-1,-2.975708544E-1,7.098438355E-1
1.941664792E0,-4.973677993E-1,-4.744816124E-1,-3.246887624E-1,7.602172852E-1
1.951604792E0,-4.247748554E-1,-6.014509201E-1,-3.259182572E-1,8.052326356E-1
1.961545792E0,-3.425814509E-1,-7.407832742E-1,-3.181735277E-1,8.759887577E-1
1.971485792E0,-2.740283906E-1,-8.771079183E-1,-3.202939630E-1,9.731382645E-1
1.981426792E0,-2.157509625E-1,-9.801927805E-1,-3.419076204E-1,1.060295801E0
1.991366792E0,-1.638102233E-1,-1.056426287E0,-3.882478774E-1,1.137368323E0
2.001307792E0,-1.150264367E-1,-1.094795585E0,-4.201315045E-1,1.178269466E0
2.011247792E0,-7.374664396E-2,-1.071094394E0,-3.936385214E-1,1.143517841E0
2.021188792E0,-3.285007551E-2,-9.766683578E-1,-3.343453705E-1,1.032834467E0
2.031128792E0,3.237549914E-3,-8.452781439E-1,-2.928124666E-1,8.945640071E-1
2.041069792E0,4.912700877E-2,-7.081389427E-1,-2.962897718E-1,7.691955889E-1
2.051009792E0,9.167718142E-2,-5.877706409E-1,-3.342961967E-1,6.823730497E-1
2.060949792E0,1.263392866E-1,-4.963043928E-1,-3.852491379E-1,6.408561179E-1
2.070890792E0,1.719465405E-1,-4.448735714E-1,-4.251196086E-1,6.389090616E-1
2.080830792E0,2.250305414E-1,-4.328280985E-1,-4.352300465E-1,6.537615015E-1
2.090772750E0,2.581184804E-1,-4.448953867E-1,-4.162268341E-1,6.616659523E-1
2.100712750E0,2.410513759E-1,-4.431507587E-1,-3.624640107E-1,6.211831613E-1
2.110653750E0,1.741201729E-1,-4.141868651E-1,-3.018065095E-1,5.412538803E-1
2.120593750E0,9.764750302E-2,-3.526779711E-1,-2.451102138E-1,4.404495465E-1
2.130534750E0,4.913001135E-2,-2.690307498E-1,-1.906140447E-1,3.333541906E-1
2.140474750E0,2.743936330E-2,-1.730147451E-1,-1.418507695E-1,2.254077672E-1
2.150415750E0,3.476964310E-2,-9.333998710E-2,-9.648237377E-2,1.386727433E-1
2.160355750E0,5.847017840E-2,-3.928687051E-2,-3.939378262E-2,8.070991305E-2
2.170296750E0,8.886611462E-2,-2.184871025E-2,1.604676247E-2,9.290883194E-2
2.180236750E0,9.601696581E-2,-3.526385128E-2,4.821588472E-2,1.130821315E-1
2.190176750E0,7.928729057E-2,-9.340284765E-2,7.584455609E-2,1.440935914E-1
2.200117750E0,6.609132141E-2,-1.790346503E-1,1.012324765E-1,2.160312086E-1
2.210057750E0,6.342181563E-2,-2.952961922E-1,1.424478740E-1,3.339364679E-1
2.219998750E0,5.611916259E-2,-4.239798784E-1,2.107888460E-1,4.768020924E-1
2.229938750E0,2.338901162E-2,-5.611065030E-1,2.781877220E-1,6.267184075E-1
2.239879750E0,-2.599771135E-2,-6.893755198E-1,3.125366569E-1,7.573596570E-1
2.249819750E0,-7.418537885E-2,-7.886959314E-1,3.058618009E-1,8.491738243E-1
2.259760750E0,-9.169646353E-2,-8.375865221E-1,2.494480908E-1,8.787398781E-1
2.269700750E0,-8.218346536E-2,-8.068917990E-1,1.928857118E-1,8.336866288E-1
2.279641750E0,-6.435013562E-2,-6.970904469E-1,1.533281803E-1,7.166488415E-1
2.289581750E0,-7.464308292E-2,-5.253701210E-1,1.235792115E-1,5.448460107E-1
2.299522750E0,-1.097195819E-1,-3.034854233E-1,9.054642171E-2,3.351722592E-1
2.309462750E0,-1.453664899E-1,-7.540082932E-2,4.701129720E-2,1.703724259E-1
2.319402750E0,-1.381746233E-1,1.169086918E-1,-3.311527660E-3,1.810271663E-1
2.329343750E0,-1.009774208E-1,2.544266582E-1,-3.418722004E-2,2.758588949E-1
2.339283750E0,-3.792627528E-2,3.266129494E-1,-4.503507540E-2,3.318773555E-1
2.349224750E0,7.523956709E-3,3.432679772E-1,-4.147830978E-2,3.458467353E-1
2.359164750E0,3.335555643E-2,2.985154092E-1,-3.372637928E-2,3.022606679E-1
2.369105750E0,5.330836773E-2,2.183376402E-1,-1.994939893E-2,2.256348504E-1
2.379045750E0,7.321496308E-2,1.187452674E-1,1.056284877E-3,1.395062188E-1
2.388986750E0,1.002112031E-1,2.200424299E-2,3.547595069E-2,1.085588090E-1
2.398926750E0,1.209961101E-1,-6.664200127E-2,5.994960293E-2,1.505827676E-1
2.408867750E0,1.234692261E-1,-1.262707412E-1,7.702606916E-2,1.926706132E-1
2.418807750E0,1.149497777E-1,-1.483928114E-1,8.579079807E-2,2.063829908E-1
2.428748750E0,1.068792567E-1,-1.377817541E-1,8.247379214E-2,1.928961214E-1
2.438688750E0,1.106103435E-1,-1.126375124E-1,7.470268756E-2,1.746492165E-1
2.448628750E0,1.221251041E-1,-7.962787151E-2,6.165952608E-2,1.582941443E-1
2.458569750E0,1.226433516E-1,-3.956994042E-2,5.883710831E-2,1.416650175E-1
2.468509750E0,9.973670542E-2,1.118804421E-2,5.866906419E-2,1.162524917E-1
2.478450750E0,4.663274437E-2,6.410638988E-2,5.940436199E-2,9.906119470E-2
2.488390750E0,-1.362270582E-2,1.061842814E-1,6.273185462E-2,1.240804792E-1
2.498331750E0,-5.942268670E-2,1.180124432E-1,6.537823379E-2,1.474188112E-1
2.508271750E0,-8.261349052E-2,1.147346273E-1,6.826855987E-2,1.570019738E-1
2.518212750E0,-8.827483654E-2,9.754419327E-2,6.600780785E-2,1.471881351E-1
2.528152750E0,-9.047175199E-2,8.651673794E-2,6.252317876E-2,1.399265226E-1
2.538093750E0,-7.940471917E-2,8.595534414E-2,5.303166807E-2,1.284748552E-1
2.548033750E0,-6.626126915E-2,9.163424373E-2,4.961223900E-2,1.234858886E-1
2.557974750E0,-4.259588569E-2,1.044168845E-1,4.099451378E-2,1.199910222E-1
2.567914750E0,-2.069124393E-2,1.213182434E-1,3.461483121E-2,1.278453374E-1
2.577854750E0,4.594405647E-3,1.301530153E-1,1.998102665E-2,1.317579499E-1
2.587795750E0,2.814624086E-2,1.336885095E-1,2.612704178E-3,1.366442632E-1
2.597735750E0,4.763072729E-2,1.418811977E-1,-9.584307671E-3,1.499693949E-1
2.607676750E0,5.893748999E-2,1.540167183E-1,-1.648382656E-2,1.657301836E-1
2.617616750E0,6.705294549E-2,1.675865799E-1,-2.109296061E-2,1.817313189E-1
2.627557750E0,6.037903577E-2,1.838033497E-1,-2.766067907E-2,1.954339083E-1
2.637497750E0,6.046745181E-2,1.938764900E-1,-3.377183527E-2,2.058760378E-1
2.647438750E0,6.694612652E-2,1.962739378E-1,-3.634326160E-2,2.105375862E-1
2.657378750E0,7.585492730E-2,1.883896589E-1,-3.670332208E-2,2.063777300E-1
2.667319750E0,6.907869130E-2,1.778915524E-1,-3.575587645E-2,1.941539408E-1
2.677259750E0,4.930099100E-2,1.792665422E-1,-3.893249482E-2,1.899547841E-1
2.687200750E0,1.754829101E-2,1.845807582E-1,-3.561790660E-2,1.888031623E-1
2.697140750E0,-4.482177552E-3,1.991549134E-1,-2.719752491E-2,2.010534128E-1
2.707080750E0,-1.647536084E-2,2.113759369E-1,-1.779510267E-2,2.127625199E-1
2.717021750E0,-4.083582759E-2,2.279940695E-1,-1.210472733E-2,2.319383214E-1
2.726961750E0,-6.915811449E-2,2.420509756E-1,-4.144137725E-3,2.517711132E-1
2.736902750E0,-8.982717246E-2,2.416959703E-1,-2.517745132E-3,2.578608191E-1
2.746842750E0,-9.234051406E-2,2.346390188E-1,-2.801188733E-3,2.521707484E-1
2.756783750E0,-8.721499145E-2,2.069663703E-1,-2.610506490E-3,2.246070968E-1
2.766723750E0,-7.418759167E-2,1.779669523E-1,3.666397650E-3,1.928457346E-1
2.776664750E0,-6.272134930E-2,1.603687853E-1,7.309601642E-3,1.723529670E-1
2.786604750E0,-5.009672791E-2,1.498093009E-1,5.697459448E-3,1.580663463E-1
2.796545750E0,-2.804468945E-2,1.389686465E-1,-9.860096034E-4,1.417736278E-1
2.806485750E0,-1.178067178E-3,1.264109015E-1,1.703067683E-3,1.264278621E-1
2.816426750E0,3.159532696E-2,1.110106409E-1,2.569127595E-3,1.154479428E-1
2.826366750E0,6.153378263E-2,8.526000381E-2,4.648257513E-3,1.052486625E-1
2.836306750E0,7.808213681E-2,6.344045699E-2,1.245344989E-2,1.013735670E-1
2.846247750E0,8.012212068E-2,4.551711679E-2,8.485605940E-3,9.253846579E-2
2.856187750E0,7.358192652E-2,3.342183679E-2,1.753667719E-3,8.083560129E-2
2.866128750E0,6.693266332E-2,2.955692075E-2,-1.074259402E-3,7.317613694E-2
2.876068750E0,7.071594894E-2,2.752226591E-2,-3.759258660E-3,7.597600003E-2
2.886009750E0,7.746212184E-2,2.925417759E-2,-7.030507550E-4,8.280508141E-2
2.895949750E0,6.510825455E-2,4.173294827E-2,9.031016380E-4,7.734041230E-2
2.905890750E0,4.005517066E-2,6.486207247E-2,3.831370268E-4,7.623419138E-2
2.915830750E0,8.828276768E-3,9.121804684E-2,-1.734875143E-3,9.166068041E-2
2.925771750E0,-3.720636480E-3,1.036877260E-1,4.085599910E-3,1.038348678E-1
2.935711750E0,-5.372062325E-3,1.002250835E-1,1.686983928E-2,1.017768043E-1
2.945651750E0,-4.939444363E-3,8.791900426E-2,2.228146419E-2,9.083288539E-2
2.955592750E0,-1.999269798E-2,7.736090571E-2,2.772736177E-2,8.457673613E-2
2.965532750E0,-3.549011052E-2,7.294860482E-2,3.127728775E-2,8.694432482E-2
2.975473750E0,-3.698494285E-2,6.974801421E-2,3.667684644E-2,8.705091929E-2
2.985413750E0,-3.418640047E-2,6.764157116E-2,3.696338832E-2,8.432309413E-2
2.995354750E0,-2.350765653E-2,6.602875888E-2,3.705792874E-2,7.928238769E-2
3.005294750E0,-1.229649782E-2,5.997115746E-2,3.559792042E-2,7.081635068E-2
3.015235750E0,-7.338792784E-5,5.765074492E-2,3.724641353E-2,6.863606265E-2
3.025175750E0,1.280604769E-2,5.593466014E-2,3.828421235E-2,6.898088124E-2
3.035116750E0,2.103468217E-2,5.695092306E-2,3.509880230E-2,7.012696638E-2
3.045056750E0,2.841643244E-2,5.030820146E-2,3.137810156E-2,6.574947927E-2
3.054997750E0,3.150783107E-2,4.388712347E-2,2.979044616E-2,6.169516762E-2
3.064937750E0,3.662366420E-2,3.810795024E-2,2.968207002E-2,6.061793407E-2
3.074877750E0,4.080882296E-2,3.663868457E-2,2.978566661E-2,6.240944780E-2
3.084818750E0,4.457932338E-2,3.514125571E-2,2.826618776E-2,6.341294265E-2
3.094758042E0,5.209263414E-2,3.221897036E-2,2.199977078E-2,6.508221337E-2
3.104699042E0,5.853199214E-2,3.400759399E-2,1.424371079E-2,6.917654118E-2
3.114639042E0,5.936263129E-2,3.516820073E-2,1.190891769E-2,7.001818804E-2
3.124580042E0,6.276883930E-2,3.739294782E-2,1.294779591E-2,7.420111288E-2
3.134520042E0,6.205537543E-2,3.346079215E-2,1.295978017E-2,7.168298357E-2
3.144461042E0,5.584924296E-2,2.674528211E-2,1.031323429E-2,6.277587798E-2
3.154401042E0,4.392120987E-2,1.715577208E-2,6.693465635E-3,4.762557794E-2
3.164342042E0,3.329575434E-2,7.896700874E-3,6.828734186E-3,3.489407905E-2
3.174282042E0,2.930048108E-2,7.781652268E-3,1.105037704E-2,3.226736953E-2
3.184222042E0,2.152942494E-2,1.075809449E-2,1.427658182E-2,2.798345089E-2
3.194163042E0,1.937040128E-2,1.904691756E-2,1.661323942E-2,3.184332329E-2
3.204103042E0,2.025744878E-2,3.178186342E-2,1.254559495E-2,3.972207228E-2
3.214044042E0,2.072802931E-2,4.843753949E-2,1.187501103E-2,5.400798383E-2
3.223984042E0,1.799913496E-2,6.455907226E-2,1.995749027E-2,6.992956519E-2
3.233925042E0,1.827743649E-2,7.084253430E-2,3.046206385E-2,7.925065732E-2
3.243865042E0,1.240112446E-2,6.948503852E-2,3.954552114E-2,8.090615989E-2
3.253806042E0,-8.225351339E-4,5.405601114E-2,4.673232883E-2,7.146075470E-2
3.263746042E0,-1.171011757E-2,3.617678583E-2,5.016136169E-2,6.294480831E-2
3.273687042E0,-1.386301685E-2,9.990189224E-3,5.100371689E-2,5.379002001E-2
3.283627042E0,-3.670544364E-3,-1.274619997E-2,4.888113216E-2,5.064882615E-2
3.293567042E0,1.674444973E-2,-2.722980268E-2,4.551303014E-2,5.561721553E-2
3.303508042E0,1.708240621E-2,-2.951752767E-2,3.523923829E-2,4.903974875E-2
3.313448042E0,6.802604534E-3,-1.584885269E-2,2.629314736E-2,3.144504982E-2
3.323389042E0,-2.155906521E-3,9.696573252E-4,2.049143426E-2,2.062733735E-2
3.333329042E0,-7.338151336E-3,1.742053591E-2,1.055438071E-2,2.164990736E-2
3.343270042E0,-8.787250146E-3,2.666832879E-2,1.663386589E-3,2.812796439E-2
3.353210042E0,-3.490756266E-3,2.866516635E-2,-6.391343661E-3,2.957577412E-2
3.363151042E0,1.627984806E-3,3.771073371E-2,-1.331884228E-2,4.002675769E-2
3.373091042E0,4.013378173E-3,5.071920902E-2,-1.662329212E-2,5.352456640E-2
3.383032042E0,9.432861581E-3,6.100431457E-2,-2.087735757E-2,6.516417216E-2
3.392972042E0,1.072556060E-2,6.888407469E-2,-2.520179749E-2,7.412950824E-2
3.402913042E0,1.722105779E-2,7.392786443E-2,-2.519947104E-2,7.998066836E-2
3.412853042E0,2.077131905E-2,6.047729775E-2,-2.510918863E-2,6.869805377E-2
3.422793042E0,2.941247635E-2,5.082307011E-2,-1.957940124E-2,6.189855550E-2
3.432734042E0,2.578977868E-2,3.991050273E-2,-5.959729664E-3,4.789028388E-2
3.442674042E0,1.777410135E-2,3.086149879E-2,5.078290123E-3,3.597415484E-2
3.452615042E0,8.820020594E-3,2.552212775E-2,1.117027085E-2,2.922236676E-2
3.462555042E0,6.760549732E-3,1.734140515E-2,1.590623707E-2,2.448341771E-2
3.472496042E0,7.344580721E-3,2.484695520E-3,1.532913093E-2,1.717844093E-2
3.482436042E0,1.155271474E-2,-1.222131588E-2,1.499029063E-2,2.252852842E-2
3.492377042E0,7.450914476E-3,-1.670821011E-2,1.249757130E-2,2.215557943E-2
3.502317042E0,-5.790927447E-3,-1.516653970E-2,5.592761096E-3,1.717083993E-2
3.512258042E0,-1.796876453E-2,-8.464568527E-4,-3.529098118E-3,1.833159899E-2
3.522198042E0,-2.352535166E-2,1.521198731E-2,-1.166001149E-2,3.034472930E-2
3.532138042E0,-1.986563578E-2,3.247779608E-2,-1.961673796E-2,4.282834495E-2
3.542079042E0,-1.236847602E-2,4.449382424E-2,-2.644376643E-2,5.321609134E-2
3.552019042E0,-1.015686081E-3,5.393180251E-2,-2.989149280E-2,6.166986527E-2
3.561960042E0,3.395645646E-3,5.624459684E-2,-3.324107081E-2,6.542135639E-2
3.571900042E0,4.266233183E-3,5.741958320E-2,-3.288979828E-2,6.630948734E-2
3.581841042E0,8.720831829E-4,6.001751870E-2,-2.893533558E-2,6.663420086E-2
3.591781042E0,5.216763820E-3,4.590808973E-2,-2.214560658E-2,5.123665893E-2
3.601722042E0,1.115258783E-2,2.675372362E-2,-1.255608164E-2,3.158792695E-2
3.611662042E0,5.677927285E-3,-5.458275788E-3,-8.795964532E-3,1.180680418E-2
3.621603042E0,-1.855163486E-3,-2.243542857E-2,2.904434223E-4,2.251387226E-2
3.631543042E0,-1.107662451E-2,-3.019667789E-2,2.675037831E-3,3.227517302E-2
3.641483042E0,-2.026990429E-2,-3.088892810E-2,5.723772570E-3,3.738658143E-2
3.651424042E0,-2.437303588E-2,-1.927275211E-2,3.642245661E-3,3.128497731E-2
3.661364042E0,-2.984915115E-2,-6.137832534E-3,1.807364170E-3,3.052722355E-2
3.671305042E0,-3.502580523E-2,1.231400296E-3,-3.347450169E-3,3.520694252E-2
3.681245042E0,-3.264651075E-2,7.589638233E-3,-7.397339679E-3,3.432372222E-2
3.691186042E0,-3.244970366E-2,1.467977278E-2,-1.458521187E-2,3.848645739E-2
3.701126042E0,-3.294584900E-2,2.693144977E-2,-1.834813878E-2,4.633989803E-2
3.711067042E0,-2.586956508E-2,3.504237160E-2,-2.088719606E-2,4.830607792E-2
3.721007042E0,-1.076605171E-2,4.067591950E-2,-2.217551880E-2,4.756250551E-2
3.730948042E0,6.708937581E-4,4.032650962E-2,-1.821593009E-2,4.425491595E-2
3.740888042E0,1.286015753E-2,3.620100021E-2,-1.249875594E-2,4.039944267E-2
3.750828042E0,1.352674700E-2,3.040089831E-2,-5.840053782E-3,3.378303910E-2
3.760769042E0,1.327820029E-2,1.431137696E-2,5.341907963E-4,1.952975866E-2
3.770709042E0,1.432189345E-2,-1.716325292E-3,9.968705475E-3,1.753389556E-2
3.780650042E0,4.691783339E-3,-2.243857831E-2,1.919182763E-2,2.989697100E-2
3.790590042E0,-6.686572451E-3,-4.032410309E-2,2.300440893E-2,4.690358591E-2
3.800531042E0,-7.693780120E-3,-5.589241162E-2,1.948557422E-2,5.968955965E-2
3.810471042E0,-7.624271326E-3,-5.742399395E-2,1.957345940E-2,6.114544061E-2
3.820412042E0,-8.981733583E-3,-5.402369425E-2,1.564669423E-2,5.695656344E-2
3.830352042E0,-8.778534830E-3,-4.279127717E-2,1.499528624E-2,4.618457194E-2
3.840293042E0,-1.044744067E-2,-2.943088114E-2,1.014884934E-2,3.283785809E-2
3.850233042E0,-1.121496409E-2,-1.060046908E-2,3.293073969E-3,1.577940748E-2
3.860173042E0,-1.725002564E-2,1.025810279E-2,-3.001458477E-3,2.029287586E-2
3.870114042E0,-2.065887116E-2,2.618726715E-2,-1.217737980E-2,3.550845670E-2
3.880054042E0,-1.960266195E-2,3.625055775E-2,-1.499873213E-2,4.385577794E-2
3.889995042E0,-1.820397004E-2,4.183121026E-2,-1.224449184E-2,4.723518029E-2
3.899935042E0,-9.874981828E-3,3.324028850E-2,-6.096369587E-3,3.520792194E-2
3.909876042E0,3.049605060E-3,1.576888934E-2,1.125324750E-3,1.610044464E-2
3.919816042E0,5.420859903E-3,-6.993114948E-4,4.997993819E-3,7.406395944E-3
3.929757042E0,-5.832370371E-4,-6.447211839E-3,1.327163633E-2,1.476628040E-2
3.939697042E0,-7.473416161E-3,-1.072853245E-2,1.914077811E-2,2.318022313E-2
3.949638042E0,-4.067232832E-3,-1.180125400E-2,2.417282015E-2,2.720546293E-2
3.959578042E0,5.286079831E-3,-9.965259582E-3,2.303042449E-2,2.564467763E-2
3.969518042E0,1.837897860E-2,-4.866637290E-3,2.257901989E-2,2.951750585E-2
3.979459042E0,1.772289537E-2,6.658922415E-3,2.113099582E-2,2.837183908E-2
3.989399042E0,1.218458544E-2,1.792116463E-2,1.489360444E-2,2.629546952E-2
3.999340042E0,1.583427563E-2,2.679445408E-2,1.363329310E-2,3.397843044E-2
4.009280042E0,3.252696991E-2,2.028249390E-2,1.323089004E-2,4.055169271E-2
4.019221042E0,3.968341649E-2,1.753698662E-2,1.123760268E-2,4.481744256E-2
4.029161042E0,3.624207899E-2,1.861822978E-2,3.968504258E-3,4.093746201E-2
4.039102042E0,8.539978415E-3,3.643874452E-2,2.127472311E-3,3.748652387E-2
4.049042042E0,-1.000600960E-2,5.828412250E-2,6.281204522E-3,5.946942655E-2
4.058983042E0,-1.200669724E-2,6.049848348E-2,5.969650112E-3,6.196663622E-2
4.068923042E0,8.365686052E-3,4.664605111E-2,1.099556778E-2,4.864916544E-2
4.078863042E0,3.047161736E-2,2.977797389E-2,1.379826292E-2,4.478436393E-2
4.088804042E0,3.659475967E-2,1.584777609E-2,1.388614718E-2,4.222740255E-2
4.098745417E0,2.140340954E-2,1.899728924E-2,1.525284536E-2,3.242918793E-2
4.108686417E0,5.025767721E-3,3.196954727E-2,1.585285552E-2,3.603641661E-2
4.118626417E0,-4.663734580E-4,3.929781169E-2,1.965065487E-2,4.393954647E-2
4.128567417E0,2.592799487E-3,3.060365655E-2,2.435433120E-2,3.919744700E-2
4.138507417E0,3.592986846E-3,1.150555070E-2,2.772362903E-2,3.023056165E-2
4.148448417E0,2.217996866E-3,-1.101653557E-2,2.463622764E-2,2.707816977E-2
4.158388417E0,4.233912565E-3,-3.308280557E-2,2.018690109E-2,3.898601052E-2
4.168328417E0,5.197178107E-3,-4.341667145E-2,1.001761947E-2,4.485945519E-2
4.178269417E0,9.265470318E-3,-3.218050674E-2,3.540212056E-3,3.367442732E-2
4.188209417E0,1.251878869E-2,-1.779810339E-2,-7.659445517E-3,2.306858600E-2
4.198150417E0,2.503087558E-2,5.677405279E-4,-2.110540681E-2,3.274607241E-2
4.208090417E0,3.149490058E-2,1.680290326E-2,-2.599683590E-2,4.415995695E-2
4.218031417E0,4.050860927E-2,2.127499692E-2,-2.835460193E-2,5.382895475E-2
4.227971417E0,3.732000664E-2,2.298900858E-2,-2.300484478E-2,4.950252816E-2
4.237912417E0,2.764578536E-2,2.931160852E-2,-1.755238883E-2,4.394935945E-2
4.247852417E0,1.353902183E-2,3.925452009E-2,-1.354859397E-2,4.367821949E-2
4.257793417E0,2.149848733E-4,3.969961405E-2,-9.301698767E-3,4.077532555E-2
4.267733417E0,-3.088400234E-3,2.799102664E-2,-4.852621816E-3,2.857592915E-2
4.277673417E0,-1.059081592E-2,8.865791373E-3,4.379393067E-3,1.448953837E-2
4.287614417E0,-2.184080705E-2,-1.054732129E-2,6.162912119E-3,2.502495404E-2
4.297554417E0,-3.745240346E-2,-1.946645789E-2,9.863872081E-3,4.334652789E-2
4.307495417E0,-4.870479181E-2,-1.397422049E-2,4.576964304E-3,5.087616521E-2
4.317435417E0,-5.093877017E-2,-2.000438981E-3,8.850800805E-5,5.097811194E-2
4.327376417E0,-4.501004145E-2,7.141660433E-3,-1.017185301E-2,4.669447225E-2
4.337316417E0,-3.248688951E-2,1.420524251E-2,-1.401329786E-2,3.812557438E-2
4.347257417E0,-2.138017677E-2,1.585027762E-2,-2.185364440E-2,3.443726227E-2
4.357197417E0,-1.734696329E-2,7.855132222E-3,-2.724448033E-2,3.323976453E-2
4.367138417E0,-2.296117321E-2,-1.477915095E-3,-2.893718518E-2,3.696972267E-2
4.377078417E0,-2.414347231E-2,-9.578117169E-3,-2.696957625E-2,3.744336560E-2
4.387018417E0,-1.609273627E-2,-1.677584276E-2,-2.583214082E-2,3.475204397E-2
4.396959417E0,-8.797202259E-3,-2.106269822E-2,-2.535540238E-2,3.411633705E-2
4.406899417E0,-7.727943826E-3,-2.099771798E-2,-2.488375641E-2,3.346381044E-2
4.416840417E0,-1.508998405E-2,-6.036807783E-3,-3.007839993E-2,3.418860642E-2
4.426780417E0,-2.271061949E-2,3.520744853E-3,-2.882191911E-2,3.686286619E-2
4.436721417E0,-2.572478540E-2,1.130969170E-2,-2.806771360E-2,3.971737979E-2
4.446661417E0,-1.552461181E-2,1.001725998E-2,-2.789274417E-2,3.345690133E-2
4.456602417E0,-4.942468368E-3,1.371146063E-3,-2.405471168E-2,2.459547091E-2
4.466542417E0,4.618843086E-4,-1.484164689E-2,-2.462915517E-2,2.875905256E-2
4.476482417E0,-7.807279471E-3,-1.768565923E-2,-1.852698810E-2,2.677658386E-2
4.486423417E0,-1.147951279E-2,-2.318961360E-2,-1.717383601E-2,3.105604669E-2
4.496363417E0,-1.839252189E-2,-1.992855966E-2,-1.576093026E-2,3.136621230E-2
4.506304417E0,-1.846575737E-2,-2.070460469E-2,-1.607118733E-2,3.206162679E-2
4.516244417E0,-1.768888906E-2,-1.881934330E-2,-1.867619157E-2,3.187263105E-2
4.526185417E0,-1.850141957E-2,-1.241417509E-2,-2.021230198E-2,3.008241049E-2
4.536125417E0,-3.398382664E-2,4.408016801E-3,-2.360430546E-2,4.161122831E-2
4.546066417E0,-4.964933917E-2,2.269088477E-2,-2.479873411E-2,5.995757121E-2
4.556006417E0,-4.940173775E-2,3.232270479E-2,-2.437079698E-2,6.386880837E-2
4.565947417E0,-4.739638045E-2,3.702451661E-2,-2.226423658E-2,6.413211318E-2
4.575887417E0,-4.495212808E-2,2.992000058E-2,-1.874007657E-2,5.715847027E-2
4.585827417E0,-4.829146713E-2,2.192971855E-2,-1.556132734E-2,5.527325992E-2
4.595768417E0,-4.704326764E-2,1.119929831E-2,-1.309347432E-2,5.009922537E-2
4.605708417E0,-3.880504519E-2,3.456956707E-3,-9.112847969E-3,4.001032466E-2
4.615649417E0,-2.347032353E-2,-7.745180279E-3,-1.189926453E-2,2.743057419E-2
4.625589417E0,-1.540147886E-2,-1.381665468E-2,-1.454990916E-2,2.529437396E-2
4.635530417E0,-9.028557688E-3,-1.797865331E-2,-1.413748506E-2,2.458892663E-2
4.645470417E0,-2.969333436E-3,-2.151479945E-2,-1.173664443E-2,2.468708891E-2
4.655411417E0,3.371387720E-3,-3.106242605E-2,-2.986178966E-3,3.138722402E-2
4.665351417E0,8.613287471E-3,-4.563338310E-2,9.039007127E-4,4.644794301E-2
4.675292417E0,9.502758272E-3,-5.485332757E-2,-1.794365933E-3,5.569927926E-2
4.685232417E0,1.296493923E-3,-5.436490476E-2,-6.610426120E-3,5.478066721E-2
4.695172417E0,-8.996964316E-4,-4.254307598E-2,-1.135514677E-2,4.404159540E-2
4.705113417E0,-8.212470450E-3,-2.501974069E-2,-1.268086955E-2,2.922732535E-2
4.715053417E0,-1.073002815E-2,-1.110529061E-2,-1.544473134E-2,2.184034592E-2
4.724994417E0,-1.060299482E-2,-5.725438707E-3,-1.992310211E-2,2.328377429E-2
4.734934417E0,-1.029513124E-2,-6.765066180E-3,-2.074590139E-2,2.412774901E-2
4.744875417E0,-8.239970542E-3,-1.357636601E-2,-1.987051964E-2,2.543722428E-2
4.754815417E0,-1.161760930E-2,-1.383626834E-2,-1.264729537E-2,2.205369011E-2
4.764756417E0,-1.927899010E-2,-9.813563898E-3,-8.841105737E-3,2.336986621E-2
4.774696417E0,-2.725477144E-2,2.306147479E-3,-1.599502750E-3,2.739889216E-2
4.784636417E0,-2.380757406E-2,7.010355592E-3,-2.534538507E-3,2.494733560E-2
4.794577417E0,-1.718543097E-2,9.230794385E-3,2.274179831E-3,1.963971733E-2
4.804517417E0,-1.746692695E-2,1.162284520E-2,8.611704223E-3,2.267918687E-2
4.814458417E0,-1.885743625E-2,1.001552306E-2,1.264997106E-2,2.481804529E-2
4.824398417E0,-2.068516426E-2,2.998093842E-3,1.304198895E-2,2.463651888E-2
4.834339417E0,-1.339132246E-2,-5.761459470E-4,1.054863725E-2,1.705676432E-2
4.844279417E0,-1.253966242E-3,-1.177420560E-2,1.412712689E-2,1.843312408E-2
4.854220417E0,6.953652017E-3,-1.450533606E-2,1.392497588E-2,2.127587845E-2
4.864160417E0,1.421422791E-2,-7.470862474E-3,1.268660557E-2,2.046479958E-2
4.874101417E0,1.574864239E-2,2.362210769E-3,1.444058027E-2,2.149721227E-2
4.884041417E0,1.372650545E-2,1.320766844E-2,1.093506161E-2,2.196440370E-2
4.893981417E0,1.504862309E-2,2.288685739E-2,1.399017405E-2,3.075701981E-2
4.903922417E0,2.130571939E-2,2.244930156E-2,1.600458845E-2,3.484324426E-2
4.913862417E0,3.268717229E-2,1.607410982E-2,1.560353208E-2,3.962699147E-2
4.923803417E0,3.992431238E-2,4.891230259E-3,1.183968689E-2,4.192914307E-2
4.933743417E0,4.382179677E-2,-6.650158903E-4,1.636727713E-2,4.678332908E-2
4.943684417E0,4.460130632E-2,-4.008614458E-3,1.795372181E-2,4.824605312E-2
4.953624417E0,4.664804414E-2,3.567129374E-3,1.991911978E-2,5.084816385E-2
4.963565417E0,5.170299113E-2,4.044900648E-3,2.275298908E-2,5.663266747E-2
4.973505417E0,5.610030517E-2,1.037172694E-2,2.257628925E-2,6.135556858E-2
4.983445417E0,4.850922897E-2,1.484024432E-2,2.685332485E-2,5.739755397E-2
4.993386417E0,3.772229329E-2,1.585293934E-2,3.243462741E-2,5.221390765E-2
5.003326417E0,2.304720879E-2,1.886657253E-2,3.292624652E-2,4.439886375E-2
5.013267417E0,1.281025913E-2,1.925538294E-2,3.256768733E-2,3.994404548E-2
5.023207417E0,1.301319245E-2,1.487395167E-2,2.936150506E-2,3.539315747E-2
5.033148417E0,1.292482298E-2,1.517224777E-2,2.511103451E-2,3.205951038E-2
5.043088417E0,1.302096341E-2,2.635459602E-2,2.095517144E-2,3.610026910E-2
5.053029417E0,9.756122716E-3,4.282940552E-2,1.988215186E-2,4.821659330E-2
5.062969417E0,4.496645648E-3,5.974048004E-2,1.791434176E-2,6.253053988E-2
5.072909417E0,2.058473416E-3,7.418197393E-2,1.701106317E-2,7.613526673E-2
5.082850417E0,1.193745062E-3,7.442938536E-2,1.865902729E-2,7.674189034E-2
5.092789042E0,6.878163200E-3,6.281542033E-2,2.277138084E-2,6.716860833E-2
5.102730042E0,1.566393115E-2,4.230402410E-2,2.761886641E-2,5.289414879E-2
5.112670042E0,2.324466966E-2,1.454279292E-2,3.307946026E-2,4.296577923E-2
5.122611042E0,3.229355812E-2,-8.438689634E-3,3.677513078E-2,4.966382610E-2
5.132551042E0,3.245090321E-2,-1.963730343E-2,3.614482656E-2,5.239401962E-2
5.142492042E0,2.860636450E-2,-2.130284533E-2,3.030824475E-2,4.680518143E-2
5.152432042E0,2.862294577E-2,-1.004855894E-2,3.005607426E-2,4.270379563E-2
5.162373042E0,3.341397271E-2,-1.122434437E-2,2.890665457E-2,4.558589866E-2
5.172313042E0,3.756068647E-2,-2.003998682E-2,2.533761971E-2,4.954191369E-2
5.182253042E0,3.682884946E-2,-2.935971878E-2,2.118069120E-2,5.164280124E-2
5.192194042E0,3.348050267E-2,-4.142947868E-2,1.387199573E-2,5.504341948E-2
5.202134042E0,2.022461779E-2,-3.909202293E-2,1.273988560E-2,4.582058605E-2
5.212075042E0,9.721887298E-3,-3.020825982E-2,1.009153854E-2,3.330004811E-2
5.222015042E0,8.134908974E-3,-2.269654721E-2,6.760190241E-3,2.504017115E-2
5.231956042E0,1.100085769E-2,-1.950781792E-2,-3.924444318E-4,2.239928219E-2
5.241896042E0,1.146664470E-2,-1.315538026E-2,-6.494545378E-3,1.862060929E-2
5.251837042E0,9.813499637E-3,-5.206238013E-3,-1.175943203E-2,1.617695679E-2
5.261777042E0,2.820038237E-3,1.196901966E-2,-1.272908784E-2,1.769857973E-2
5.271717042E0,-1.065427251E-2,2.867873386E-2,-1.550456975E-2,3.429832330E-2
5.281658042E0,-1.389853470E-2,5.003196001E-2,-1.928305998E-2,5.539135936E-2
5.291598042E0,-3.291673493E-3,6.025371701E-2,-1.519421022E-2,6.222708053E-2
5.301539042E0,1.615446247E-2,6.377334893E-2,-1.637345925E-2,6.779451939E-2
5.311479042E0,3.492613882E-2,5.541941151E-2,-1.539812610E-2,6.729226280E-2
5.321420042E0,3.655333072E-2,4.622830823E-2,-1.552356035E-2,6.094410057E-2
5.331360042E0,3.105961718E-2,3.896333277E-2,-1.233647205E-2,5.133254000E-2
5.341301042E0,1.758695208E-2,3.928583860E-2,-6.759813055E-3,4.357032328E-2
5.351241042E0,3.347610589E-3,3.499924019E-2,2.463712357E-3,3.524518675E-2
5.361181042E0,-8.850731887E-3,2.807821520E-2,8.296301588E-3,3.058676582E-2
5.371122042E0,-1.604903676E-2,2.402999066E-2,1.688358188E-2,3.346740756E-2
5.381062042E0,-3.915408999E-2,3.124209866E-2,1.837495342E-2,5.335494733E-2
5.391003042E0,-5.916508287E-2,3.863948956E-2,1.922411844E-2,7.323307937E-2
5.400943042E0,-7.142761350E-2,4.784097895E-2,1.781903394E-2,8.779624825E-2
5.410884042E0,-6.375610828E-2,5.331004784E-2,1.488902327E-2,8.443035922E-2
5.420824042E0,-4.869566113E-2,4.939599708E-2,7.383170538E-3,6.975487902E-2
5.430765042E0,-2.962019108E-2,4.591560364E-2,-3.224416403E-3,5.473568524E-2
5.440705042E0,-2.166958898E-2,4.614223912E-2,-1.260060724E-2,5.251145228E-2
5.450646042E0,-1.578107476E-2,4.906212911E-2,-1.426295284E-2,5.347491615E-2
5.460586042E0,-9.040080942E-3,4.232886061E-2,-1.824331284E-2,4.697099070E-2
5.470526042E0,5.519101396E-3,2.651511319E-2,-2.145205438E-2,3.454999776E-2
5.480467042E0,2.058380283E-2,3.326436505E-3,-2.566597424E-2,3.306811686E-2
5.490407042E0,2.989230305E-2,-1.880711876E-2,-3.138345107E-2,4.724593632E-2
5.500348042E0,2.800518833E-2,-2.393929660E-2,-3.005506471E-2,4.754668663E-2
5.510288042E0,1.874930039E-2,-1.520789042E-2,-2.878716588E-2,3.757016257E-2
5.520229042E0,2.063641697E-2,-4.256705288E-3,-3.065164760E-2,3.719549362E-2
5.530169042E0,2.812687494E-2,4.289472010E-3,-2.307330444E-2,3.663192654E-2
5.540110042E0,2.123967372E-2,1.527501177E-2,-9.903441183E-3,2.797369964E-2
5.550050042E0,-4.360447638E-3,1.592191495E-2,-2.495126566E-3,1.669570411E-2
5.559990042E0,-3.585632145E-2,5.739852786E-3,2.035080083E-2,4.162663561E-2
5.569931042E0,-7.122041285E-2,-1.562454645E-2,4.364876449E-2,8.498051718E-2
5.579871042E0,-1.017628759E-1,-5.052180961E-2,5.697202682E-2,1.270981825E-1
5.589812042E0,-1.250636727E-1,-8.027624339E-2,5.446119979E-2,1.582757712E-1
5.599752042E0,-1.298834085E-1,-8.872962743E-2,4.078393802E-2,1.624991575E-1
5.609693042E0,-1.231892407E-1,-7.505446672E-2,2.753316425E-2,1.468565189E-1
5.619633042E0,-1.064195856E-1,-3.205640242E-2,8.083032444E-3,1.114364238E-1
5.629574042E0,-9.872784466E-2,2.629152313E-2,-6.341029890E-3,1.023652292E-1
5.639514042E0,-7.928384095E-2,8.469064534E-2,-1.755666733E-2,1.173314511E-1
5.649454042E0,-4.632535577E-2,1.195000261E-1,-2.504680678E-2,1.305895760E-1
5.659395042E0,2.040623367E-4,1.209698245E-1,-2.907323837E-2,1.244146023E-1
5.669335042E0,5.471768975E-2,8.713053167E-2,-3.168803081E-2,1.076563348E-1
5.679276042E0,8.986902237E-2,3.924903274E-2,-2.481015213E-2,1.011556790E-1
5.689216042E0,1.094486266E-1,-5.645520985E-3,-1.781341247E-2,1.110323892E-1
5.699157042E0,1.163797677E-1,-3.488862514E-2,-4.517581314E-3,1.215807346E-1
5.709097042E0,1.189685315E-1,-5.507923290E-2,1.146699488E-2,1.316006282E-1
5.719038042E0,1.138885468E-1,-7.367608696E-2,2.188661322E-2,1.373964728E-1
5.728978042E0,9.978597611E-2,-7.977183163E-2,2.600196190E-2,1.303721142E-1
5.738918042E0,7.747641206E-2,-7.840882242E-2,3.061349131E-2,1.144015896E-1
5.748859042E0,4.676853493E-2,-6.761245430E-2,3.187481686E-2,8.817450757E-2
5.758799042E0,7.102084346E-3,-5.822560936E-2,2.841270715E-2,6.517624656E-2
5.768740042E0,-3.448675573E-2,-4.027515650E-2,2.010314353E-2,5.670591619E-2
5.778680042E0,-7.163305581E-2,-1.091514062E-2,1.315016206E-2,7.364347725E-2
5.788621042E0,-9.536734968E-2,1.612556539E-2,2.947092988E-3,9.676595787E-2
5.798561042E0,-1.017746478E-1,4.384854063E-2,-1.059348322E-2,1.113238310E-1
5.808502042E0,-8.924052864E-2,6.516745687E-2,-2.040997893E-2,1.123709777E-1
5.818442042E0,-5.858993530E-2,7.749363035E-2,-2.684497461E-2,1.007903563E-1
5.828382042E0,-3.194753081E-2,8.104848862E-2,-2.600974031E-2,9.091759358E-2
5.838323042E0,-7.766559720E-3,8.017364144E-2,-2.350503765E-2,8.390839664E-2
5.848263042E0,1.018038765E-2,6.460475922E-2,-1.702064089E-2,6.758045148E-2
5.858204042E0,3.089844994E-2,3.057541512E-2,-1.067059767E-2,4.475971261E-2
5.868144042E0,5.194386095E-2,-2.203930169E-2,2.355654724E-3,5.647516816E-2
5.878085042E0,6.585381180E-2,-8.335433155E-2,1.431324799E-2,1.071892634E-1
5.888025042E0,6.291799992E-2,-1.367567331E-1,1.999515295E-2,1.518581078E-1
5.897966042E0,5.182246864E-2,-1.680656523E-1,2.210277878E-2,1.772573399E-1
5.907906042E0,3.213437274E-2,-1.774162203E-1,2.218290605E-2,1.816623639E-1
5.917847042E0,1.125305984E-2,-1.680203229E-1,2.291687392E-2,1.699489434E-1
5.927787042E0,-8.223727345E-3,-1.408438385E-1,9.811356664E-3,1.414244648E-1
5.937727042E0,-2.715294249E-2,-9.689183533E-2,-1.545692794E-3,1.006364706E-1
5.947668042E0,-3.640921786E-2,-4.825741798E-2,-1.344679296E-2,6.192919971E-2
5.957608042E0,-4.822966084E-2,2.357289195E-3,-2.563980967E-2,5.467226753E-2
5.967549042E0,-5.941612646E-2,4.211735725E-2,-3.595751151E-2,8.122247534E-2
5.977489042E0,-5.552258343E-2,6.298269331E-2,-3.686271980E-2,9.169753017E-2
5.987430042E0,-5.331419036E-2,6.124136969E-2,-3.632690758E-2,8.895252930E-2
5.997370042E0,-4.855192825E-2,4.148417711E-2,-3.292924911E-2,7.185097170E-2
6.007311042E0,-4.084391519E-2,8.780567907E-3,-2.572236769E-2,4.906081920E-2
6.017251042E0,-3.021604009E-2,-3.996566683E-2,-2.011375129E-2,5.398913405E-2
6.027191042E0,-1.289769355E-2,-8.512950689E-2,-1.734193228E-2,8.783009767E-2
6.037132042E0,5.053343251E-3,-1.258777380E-1,-8.252031170E-3,1.262491078E-1
6.047072042E0,1.561839134E-2,-1.444845051E-1,-4.338533618E-3,1.453909530E-1
6.057013042E0,7.764995564E-3,-1.364494711E-1,-4.326016642E-3,1.367386842E-1
6.066953042E0,-5.452997517E-3,-1.043010280E-1,-4.865422845E-3,1.045567404E-1
6.076894042E0,-1.530163363E-2,-5.984727293E-2,-6.758131087E-3,6.214103640E-2
6.086834042E0,-1.255257335E-2,-3.964545950E-2,-2.541365800E-3,4.166279032E-2
6.096773792E0,1.952333259E-3,-4.564316571E-2,1.179735921E-2,4.718355503E-2
6.106714792E0,-3.016689443E-4,-7.208557427E-2,2.503192239E-2,7.630870304E-2
6.116654792E0,-3.085398488E-2,-9.551712871E-2,2.460022457E-2,1.033472850E-1
6.126595792E0,-6.307119131E-2,-1.029733196E-1,1.940501109E-2,1.223030424E-1
6.136535792E0,-8.285768330E-2,-9.420379996E-2,1.140940376E-2,1.259758949E-1
6.146476792E0,-8.509965241E-2,-7.403402030E-2,-2.193689346E-3,1.128175486E-1
6.156416792E0,-8.486316353E-2,-3.969148919E-2,-2.026217058E-2,9.585262853E-2
6.166357792E0,-9.188623726E-2,3.852166934E-3,-2.979367413E-2,9.667255457E-2
6.176297792E0,-9.576991946E-2,4.590614140E-2,-3.940049559E-2,1.132768747E-1
6.186238792E0,-1.007904112E-1,7.568073273E-2,-4.635950178E-2,1.342962535E-1
6.196178792E0,-9.539671242E-2,8.765271306E-2,-4.804262146E-2,1.381724442E-1
6.206118792E0,-8.258531243E-2,7.973719388E-2,-4.599795863E-2,1.236695844E-1
6.216059792E0,-6.333918124E-2,5.085760728E-2,-4.468555376E-2,9.271001463E-2
6.225999792E0,-3.472269326E-2,1.383994706E-2,-4.102973267E-2,5.550359020E-2
6.235940792E0,-8.486295119E-3,-2.944254503E-2,-3.131425753E-2,4.381168095E-2
6.245880792E0,1.450363919E-2,-6.894338876E-2,-2.113542333E-2,7.355441879E-2
6.255821792E0,2.871932648E-2,-9.453103691E-2,-1.138159540E-2,9.945077862E-2
6.265761792E0,4.563615844E-2,-1.076163277E-1,-6.599340588E-3,1.170789658E-1
6.275702792E0,5.766486004E-2,-1.100874767E-1,3.299387172E-4,1.242762949E-1
6.285642792E0,6.165545806E-2,-9.697241336E-2,-6.926939357E-3,1.151217918E-1
6.295582792E0,4.747812077E-2,-7.068301737E-2,-1.214087568E-2,8.600966085E-2
6.305523792E0,3.108651191E-2,-3.272397816E-2,-1.644744165E-2,4.803902899E-2
6.315463792E0,1.356530935E-2,5.005559418E-3,-2.161317691E-2,2.600389700E-2
6.325404792E0,-5.013701040E-3,2.995378710E-2,-2.662711032E-2,4.039021619E-2
6.335344792E0,-3.411139920E-2,5.057091266E-2,-3.297608718E-2,6.934282291E-2
6.345285792E0,-6.641841680E-2,5.652377382E-2,-3.604494780E-2,9.436938783E-2
6.355225792E0,-8.778656274E-2,5.949080363E-2,-3.805509955E-2,1.126668847E-1
6.365166792E0,-9.680535644E-2,5.201797187E-2,-4.316250980E-2,1.180684068E-1
6.375106792E0,-9.819339216E-2,3.789363056E-2,-4.438010603E-2,1.142254933E-1
6.385046792E0,-1.002269536E-1,2.775978297E-2,-4.375043884E-2,1.128279606E-1
6.394987792E0,-9.342257679E-2,2.132878266E-2,-3.564856946E-2,1.022424341E-1
6.404927792E0,-7.640355825E-2,1.157286856E-2,-3.105927445E-2,8.328333285E-2
6.414868792E0,-4.978898913E-2,2.339157276E-3,-2.659821510E-2,5.649672682E-2
6.424808792E0,-2.508502267E-2,-8.010707796E-3,-1.465280633E-2,3.013527062E-2
6.434749792E0,-1.070075668E-2,-1.621164568E-2,-4.053158686E-3,1.984317879E-2
6.444689792E0,-6.830336992E-3,-1.353647839E-2,6.855348125E-3,1.663987826E-2
6.454629792E0,1.705893315E-3,-1.357349660E-2,1.124929730E-2,1.771148135E-2
6.464570792E0,1.461435203E-2,-1.316650957E-2,1.604854874E-2,2.538685046E-2
6.474510792E0,2.788648196E-2,-1.118485071E-2,1.877455972E-2,3.542937840E-2
6.484451792E0,3.080577217E-2,-9.317938238E-3,2.258509211E-2,3.931801060E-2
6.494391792E0,3.256585449E-2,-8.840432391E-3,2.684668265E-2,4.312113743E-2
6.504332792E0,2.966879308E-2,-5.792283919E-3,2.646170743E-2,4.017474077E-2
6.514272792E0,2.964242920E-2,-5.950209219E-3,2.736451849E-2,4.077861537E-2
6.524213792E0,2.622399479E-2,2.834518673E-4,2.114257589E-2,3.368659619E-2
6.534153792E0,2.250542305E-2,9.248451330E-3,1.376055926E-2,2.795319141E-2
6.544093792E0,2.012191527E-2,1.990529709E-2,1.039404143E-2,3.015208821E-2
6.554034792E0,1.574261300E-2,3.063597158E-2,4.771576263E-3,3.477298605E-2
6.563974792E0,1.889163442E-2,3.255043924E-2,4.038240295E-4,3.763758785E-2
6.573915792E0,2.337346785E-2,2.637350187E-2,-6.585109513E-4,3.524647836E-2
6.583855792E0,2.651164122E-2,1.856632903E-2,-1.331208507E-3,3.239363842E-2
6.593796792E0,2.666184306E-2,8.729944937E-3,-5.383208394E-3,2.856649693E-2
6.603736792E0,2.239080518E-2,2.472649328E-3,-6.667582318E-3,2.349295225E-2
6.613677792E0,1.583090611E-2,-1.142325345E-3,5.013807677E-4,1.587998357E-2
6.623617792E0,9.488589130E-3,1.131481607E-3,6.619460881E-3,1.162457899E-2
6.633557792E0,2.646395704E-3,5.697471090E-3,7.334785536E-3,9.657311525E-3
6.643498792E0,-5.050934386E-3,1.676750369E-2,7.878717966E-3,1.920248200E-2
6.653438792E0,-7.898763870E-4,2.877649665E-2,7.236896083E-3,2.968304784E-2
6.663379792E0,6.564704701E-3,4.135506600E-2,7.393907756E-3,4.252066208E-2
6.673319792E0,2.823229413E-3,6.151306629E-2,9.940155782E-3,6.237495207E-2
6.683260792E0,-1.192007679E-2,8.464073390E-2,1.322070323E-2,8.649236417E-2
6.693200792E0,-1.914416812E-2,1.031734049E-1,1.830840670E-2,1.065197090E-1
6.703141792E0,-1.297366899E-2,1.054844782E-1,2.909800410E-2,1.101906759E-1
6.713081792E0,7.402974181E-3,8.232536167E-2,4.169289023E-2,9.257735304E-2
6.723021792E0,1.809597760E-2,4.987860844E-2,4.965326190E-2,7.266901955E-2
6.732962792E0,1.332226116E-2,1.487535052E-2,5.413909256E-2,5.770441958E-2
6.742902792E0,1.619978249E-2,-6.198520772E-3,5.846050009E-2,6.097937917E-2
6.752843792E0,2.220414579E-2,-6.668834947E-3,7.269829512E-2,7.630556705E-2
6.762783792E0,2.246375382E-2,1.488936041E-2,7.394567132E-2,7.870372034E-2
6.772724792E0,6.477596238E-3,4.459745437E-2,6.445389986E-2,7.864602594E-2
6.782664792E0,2.714497037E-3,7.066837698E-2,5.016252771E-2,8.670448192E-2
6.792605792E0,1.703191735E-2,8.149226010E-2,4.768365622E-2,9.594167882E-2
6.802545792E0,4.343092442E-2,6.960426271E-2,4.484259710E-2,9.349789889E-2
6.812485792E0,7.288974524E-2,3.340391070E-2,3.714579344E-2,8.836597864E-2
6.822426792E0,1.008451656E-1,-1.429065363E-3,2.555981092E-2,1.040437099E-1
6.832366792E0,1.153250411E-1,-2.688781917E-2,2.551427111E-2,1.211354529E-1
6.842307792E0,1.146214753E-1,-3.805203736E-2,2.714112960E-2,1.237848176E-1
6.852247792E0,1.041043848E-1,-3.696253896E-2,3.167622536E-2,1.149231720E-1
6.862188792E0,1.007957458E-1,-2.936210670E-2,3.401638195E-2,1.103586423E-1
6.872128792E0,9.533227235E-2,-1.806923933E-2,3.522785008E-2,1.032266486E-1
6.882068792E0,8.065299690E-2,-1.369515806E-2,3.456301242E-2,8.880914981E-2
6.892009792E0,5.600730702E-2,-1.025941409E-2,3.822539002E-2,6.858027748E-2
6.901949792E0,2.205921896E-2,-1.048949920E-2,3.536205739E-2,4.297806228E-2
6.911890792E0,1.187226619E-3,-1.281577069E-2,2.697842941E-2,2.989128868E-2
6.921830792E0,1.740624895E-3,-8.803789504E-3,1.464921050E-2,1.717951841E-2
6.931771792E0,7.918093354E-3,4.031847697E-3,-6.488832179E-3,1.100258793E-2
6.941711792E0,9.625382721E-3,2.883496881E-2,-1.787829399E-2,3.526665301E-2
6.951652792E0,3.241785336E-3,5.873614177E-2,-2.572369948E-2,6.420398926E-2
6.961592792E0,-7.354400121E-3,8.300793171E-2,-2.155372314E-2,8.607535599E-2
6.971533792E0,-4.919471685E-3,7.844353467E-2,-1.838189736E-2,8.071854486E-2
6.981473792E0,3.686991055E-3,5.790113658E-2,-1.281097904E-2,5.941596338E-2
6.991413792E0,1.988486946E-2,2.765668184E-2,-6.075766869E-4,3.406859599E-2
7.001354792E0,2.258161083E-2,4.351924290E-4,9.156737477E-3,2.437138448E-2
7.011294792E0,1.934533753E-2,-2.064931951E-2,1.587562636E-2,3.244490704E-2
7.021235792E0,2.075216733E-2,-3.068416566E-2,1.930154860E-2,4.176984857E-2
7.031175792E0,1.952418312E-2,-3.005033359E-2,2.015455812E-2,4.111474782E-2
7.041116792E0,1.957821846E-2,-2.031842805E-2,2.101188153E-2,3.518016944E-2
7.051056792E0,1.812200248E-2,-7.768015377E-3,1.402135007E-2,2.419395161E-2
7.060996792E0,1.582192816E-2,6.094653625E-3,1.107640937E-2,2.025253214E-2
7.070937792E0,1.068575494E-2,1.407934260E-2,8.923510090E-3,1.980005755E-2
7.080877792E0,6.521538366E-3,1.507764589E-2,5.121864844E-3,1.720753811E-2
7.090818792E0,5.138825160E-3,5.388266407E-3,1.155086327E-3,7.534929550E-3
7.100759250E0,6.347974762E-3,-1.748100971E-3,1.453509554E-3,6.742798426E-3
7.110700250E0,9.922203608E-3,-6.898654625E-3,8.226067293E-4,1.211273057E-2
7.120640250E0,1.062740851E-2,-9.223061614E-3,-2.325782552E-3,1.426239607E-2
7.130581250E0,3.015561495E-3,-1.969409641E-3,-3.617149312E-3,5.104503366E-3
7.140521250E0,-4.805801902E-3,4.142916296E-3,-7.641302422E-3,9.932219795E-3
7.150461250E0,-8.671380579E-3,9.678295814E-3,-1.305790525E-2,1.842202868E-2
7.160402250E0,-5.258908030E-3,6.061270367E-3,-1.562156342E-2,1.756212845E-2
7.170342250E0,-1.692935824E-3,-6.708320696E-3,-2.175029553E-2,2.282417477E-2
7.180283250E0,4.747326893E-4,-2.205599099E-2,-2.261840180E-2,3.159563593E-2
7.190223250E0,5.371753126E-3,-3.350998089E-2,-2.330896072E-2,4.117137599E-2
7.200164250E0,7.739867549E-3,-3.821456432E-2,-2.725996263E-2,4.757482568E-2
7.210104250E0,3.509169444E-3,-3.487735987E-2,-2.720723115E-2,4.437316676E-2
7.220045250E0,-1.124369446E-3,-2.565212362E-2,-2.883535251E-2,3.861053233E-2
7.229985250E0,-5.720719229E-3,-1.396937016E-2,-2.888622135E-2,3.259269420E-2
7.239925250E0,-7.610063534E-3,-4.129638430E-3,-2.534393407E-2,2.678212043E-2
7.249866250E0,-1.378380321E-2,3.092854284E-3,-1.784899831E-2,2.276281439E-2
7.259806250E0,-1.499515399E-2,2.884456422E-3,-8.942772634E-3,1.769598583E-2
7.269747250E0,-1.386916917E-2,-2.539071022E-3,-5.692118779E-3,1.520529353E-2
7.279687250E0,-9.911983274E-3,-1.637026854E-2,-1.708410447E-3,1.921332274E-2
7.289628250E0,-5.875163712E-3,-3.841218725E-2,7.187947631E-4,3.886554186E-2
7.299568250E0,-1.053409278E-2,-5.747715756E-2,2.987389918E-3,5.851081311E-2
7.309508250E0,-1.523483824E-2,-7.054422051E-2,6.716614589E-3,7.248241342E-2
7.319449250E0,-1.899326406E-2,-7.834617049E-2,7.714102976E-3,8.098378785E-2
7.329389250E0,-2.763495594E-2,-7.410482317E-2,1.346306875E-2,8.022761263E-2
7.339330250E0,-2.847530507E-2,-6.483688205E-2,4.446853884E-3,7.095377920E-2
7.349270250E0,-3.651964664E-2,-4.646586627E-2,-5.401815288E-4,5.910205678E-2
7.359211250E0,-3.516451269E-2,-3.303594515E-2,-8.132770658E-3,4.892911795E-2
7.369151250E0,-3.907962516E-2,-1.932493038E-2,-1.681281067E-2,4.672623075E-2
7.379092250E0,-4.223336279E-2,-9.601207450E-3,-1.947527379E-2,4.748817123E-2
7.389032250E0,-3.903463855E-2,-4.242128693E-3,-2.326761559E-2,4.564077780E-2
7.398972250E0,-2.929846011E-2,-1.949180849E-3,-2.487167157E-2,3.848115276E-2
7.408913250E0,-1.354346517E-2,-5.464819260E-3,-2.220424823E-2,2.657665024E-2
7.418853250E0,3.426005132E-3,-7.316145115E-3,-1.212270372E-2,1.456789058E-2
7.428794250E0,1.137554087E-2,-6.708677858E-3,-6.252030842E-3,1.461154264E-2
7.438734250E0,8.599289693E-3,-8.229829371E-3,-7.759055588E-4,1.192811402E-2
7.448675250E0,7.038677577E-3,-6.645515561E-3,1.725601498E-3,9.832779853E-3
7.458615250E0,1.453659218E-2,-1.267748140E-2,7.316957228E-3,2.062932160E-2
7.468556250E0,2.612507157E-2,-2.093887329E-2,9.731912054E-3,3.486640061E-2
7.478496250E0,3.042437509E-2,-1.992359757E-2,1.278619282E-2,3.854969606E-2
7.488436250E0,2.313796617E-2,-1.082384214E-2,1.311402768E-2,2.871408642E-2
7.498377250E0,5.650053732E-3,1.143459231E-2,2.113653533E-2,2.468655776E-2
7.508317250E0,-4.765036516E-3,2.856031433E-2,3.073243797E-2,4.222416217E-2
7.518258250E0,-1.088212710E-2,2.985930070E-2,3.225295246E-2,4.527970264E-2
7.528198250E0,-1.577222347E-2,2.222162113E-2,2.556335926E-2,3.736373664E-2
7.538139250E0,-1.242411509E-2,1.295814104E-2,2.315507829E-2,2.929897107E-2
7.548079250E0,-7.579558529E-3,8.954344317E-3,2.275160700E-2,2.559815639E-2
7.558019250E0,4.988976289E-4,2.588335425E-3,1.345141605E-2,1.370725986E-2
7.567960250E0,1.007162966E-2,-9.201129433E-4,1.230678987E-2,1.592926265E-2
7.577900250E0,1.577929407E-2,2.942524850E-3,1.000518538E-2,1.891423560E-2
7.587841250E0,2.052850835E-2,3.289001994E-3,1.159509365E-2,2.380511260E-2
7.597781250E0,1.773044281E-2,8.743745275E-3,1.432826370E-2,2.441558568E-2
7.607722250E0,2.361576259E-2,1.079251524E-2,1.892594621E-2,3.213057839E-2
7.617662250E0,2.762420662E-2,6.782720331E-3,2.263661101E-2,3.635269240E-2
7.627603250E0,3.713595122E-2,-4.003880545E-3,2.910356410E-2,4.735110744E-2
7.637543250E0,3.812321648E-2,-1.787220873E-2,3.107877821E-2,5.233245584E-2
7.647483250E0,3.045357764E-2,-1.694249921E-2,3.297814727E-2,4.797944213E-2
7.657424250E0,1.683044247E-2,-1.401115861E-2,3.186308220E-2,3.866306204E-2
7.667364250E0,1.005296409E-2,-7.466440089E-3,3.005532548E-2,3.255967451E-2
7.677305250E0,4.813120235E-3,-5.464380607E-3,3.293938190E-2,3.373467743E-2
7.687245250E0,6.370803341E-3,-2.548485762E-3,3.434100375E-2,3.501980087E-2
7.697186250E0,4.337503109E-3,-5.164231174E-3,3.090695664E-2,3.163420911E-2
7.707126250E0,3.055723384E-3,-5.377284251E-3,3.103851713E-2,3.164873105E-2
7.717067250E0,3.247631481E-3,1.699346001E-3,3.050525859E-2,3.072467557E-2
7.727007250E0,3.810623428E-3,5.122306757E-3,2.847539634E-2,2.918230755E-2
7.736947250E0,1.125861797E-2,1.363506820E-2,2.785244584E-2,3.299136710E-2
7.746888250E0,1.880415156E-2,1.749318838E-2,2.282572910E-2,3.436017556E-2
7.756828250E0,2.990198508E-2,2.149214782E-2,2.446530201E-2,4.421076941E-2
7.766769250E0,3.471085429E-2,2.796496078E-2,2.291960269E-2,5.012175800E-2
7.776709250E0,3.323798627E-2,3.688701242E-2,2.306867391E-2,5.475015189E-2
7.786650250E0,3.965886682E-2,4.342507571E-2,2.012188546E-2,6.215668261E-2
7.796590250E0,4.855455086E-2,4.507293552E-2,2.042693272E-2,6.932801386E-2
7.806530250E0,4.912659898E-2,4.808070883E-2,1.612379774E-2,7.060562402E-2
7.816471250E0,3.360852972E-2,4.713603854E-2,1.561313681E-2,5.995923149E-2
7.826411250E0,1.097006351E-2,4.598874971E-2,1.627972722E-2,5.000336901E-2
7.836352250E0,-2.616248559E-3,3.623255715E-2,1.931656338E-2,4.114331750E-2
7.846292250E0,-3.919865936E-3,2.093056962E-2,2.025000006E-2,2.938565289E-2
7.856233250E0,-6.055848207E-3,3.483469132E-3,2.262108214E-2,2.367532918E-2
7.866173250E0,-1.792582311E-2,-4.243160132E-3,2.050573379E-2,2.756491720E-2
7.876114250E0,-3.171849996E-2,1.196995378E-3,9.695145302E-3,3.318873122E-2
7.886054250E0,-3.438246250E-2,1.118304953E-2,5.250595510E-3,3.653468322E-2
7.895994250E0,-2.218958922E-2,1.909063570E-2,1.603127457E-4,2.927210176E-2
7.905935250E0,-8.450608701E-3,2.692086063E-2,-8.593231440E-3,2.949557850E-2
7.915875250E0,4.428438377E-3,3.056300059E-2,-1.113415323E-2,3.282799780E-2
7.925816250E0,6.789863575E-3,4.317839816E-2,-1.741255634E-2,4.704969111E-2
7.935756250E0,6.863151677E-3,5.405483767E-2,-2.147009969E-2,5.856614643E-2
7.945697250E0,1.006959844E-2,6.404728442E-2,-2.458946034E-2,6.934041401E-2
7.955637250E0,1.000180375E-2,6.742422283E-2,-2.709685825E-2,7.335053939E-2
7.965577250E0,1.077758241E-2,5.509113148E-2,-2.709259652E-2,6.233135516E-2
7.975518250E0,1.089331415E-2,3.894432634E-2,-2.195692435E-2,4.601555578E-2
7.985458250E0,1.456847601E-2,1.649308205E-2,-1.807909645E-2,2.848009791E-2
7.995399250E0,1.837381534E-2,-3.925467376E-3,-1.368173398E-2,2.324212187E-2
8.005339250E0,8.071376011E-3,-1.035806723E-2,-1.619469188E-2,2.084957344E-2
8.015280250E0,-9.395619854E-3,-6.056922954E-3,-2.214374579E-2,2.480543219E-2
8.025220250E0,-1.916010119E-2,1.663581235E-3,-2.712571993E-2,3.325179186E-2
8.035161250E0,-3.361615539E-2,2.127115987E-2,-2.713187598E-2,4.815232953E-2
8.045101250E0,-4.741958529E-2,3.756784275E-2,-2.407430112E-2,6.511168753E-2
8.055041250E0,-5.892584100E-2,4.866014048E-2,-2.517235652E-2,8.045937821E-2
8.064982250E0,-7.248665392E-2,5.690688267E-2,-2.789517306E-2,9.628524795E-2
8.074922250E0,-7.881622016E-2,6.243586168E-2,-2.858716249E-2,1.045344883E-1
8.084863250E0,-7.012446225E-2,6.547878683E-2,-2.431278862E-2,9.897486257E-2
8.094803250E0,-5.310323089E-2,6.322777271E-2,-2.472449467E-2,8.619167599E-2
8.104744167E0,-3.367546946E-2,5.299350992E-2,-3.156163171E-2,7.027436185E-2
8.114684167E0,-2.181019634E-2,4.149189219E-2,-3.112926148E-2,5.626982053E-2
8.124624167E0,-1.158871688E-2,2.817875147E-2,-2.850551717E-2,4.172415251E-2
8.134565167E0,-8.664299734E-3,1.155956089E-2,-2.503222041E-2,2.890165387E-2
8.144505167E0,-1.673494698E-3,-3.693888895E-3,-2.151167579E-2,2.189058234E-2
8.154446167E0,-4.771161824E-3,-1.677387767E-2,-1.971022971E-2,2.631767680E-2
8.164386167E0,-3.469408723E-3,-2.210206352E-2,-2.422801591E-2,3.297779198E-2
8.174327167E0,-6.311922334E-3,-2.156263404E-2,-2.548884042E-2,3.397747100E-2
8.184267167E0,-1.080147922E-2,-2.020096034E-2,-2.870354429E-2,3.672389150E-2
8.194208167E0,-9.089264087E-3,-1.967468485E-2,-3.520907462E-2,4.134473220E-2
8.204148167E0,-1.554263569E-2,-2.370617911E-2,-3.567512706E-2,4.556611837E-2
8.214088167E0,-1.156067755E-2,-2.601700276E-2,-4.085311294E-2,4.979468380E-2
8.224029167E0,-2.132329345E-2,-2.983251400E-2,-4.241985083E-2,5.607232365E-2
8.233969167E0,-3.185618669E-2,-2.761787362E-2,-4.177710041E-2,5.935393578E-2
8.243910167E0,-4.716989398E-2,-2.859126031E-2,-4.429458454E-2,7.074227367E-2
8.253850167E0,-5.477942526E-2,-2.859775722E-2,-4.412828758E-2,7.593367445E-2
8.263791167E0,-5.441057682E-2,-2.650850825E-2,-4.552857950E-2,7.573680368E-2
8.273731167E0,-4.256317019E-2,-3.075461462E-2,-4.851261526E-2,7.149086387E-2
8.283671167E0,-3.517183289E-2,-3.101161122E-2,-5.475160107E-2,7.208686204E-2
8.293612167E0,-4.206074402E-2,-2.703317255E-2,-6.061558425E-2,7.857574473E-2
8.303552167E0,-5.371580273E-2,-1.964769512E-2,-7.107328624E-2,9.122955334E-2
8.313493167E0,-6.741006672E-2,-9.315705858E-3,-7.512032986E-2,1.013605615E-1
8.323433167E0,-8.022972196E-2,3.374257125E-3,-7.211229205E-2,1.079276450E-1
8.333374167E0,-8.857548237E-2,1.305454317E-2,-6.269383430E-2,1.093002929E-1
8.343314167E0,-8.880984038E-2,1.677418128E-2,-5.678906664E-2,1.067406155E-1
8.353255167E0,-8.745979518E-2,1.107892022E-2,-4.368179291E-2,9.838728209E-2
8.363195167E0,-8.527200669E-2,-4.248697078E-4,-3.964923322E-2,9.404019000E-2
8.373135167E0,-8.077559620E-2,-1.467531081E-3,-2.345138974E-2,8.412382701E-2
8.383076167E0,-7.504341006E-2,-9.017858654E-3,-1.199660171E-2,7.652942977E-2
8.393016167E0,-6.727676094E-2,-1.216994226E-2,-1.671225997E-3,6.838905653E-2
8.402957167E0,-6.202420965E-2,-1.488210633E-2,4.142987076E-3,6.391904265E-2
8.412897167E0,-4.980265349E-2,-1.985393837E-2,1.142347232E-2,5.481768769E-2
8.422838167E0,-4.268828407E-2,-3.002748080E-2,1.713142544E-2,5.493109263E-2
8.432778167E0,-3.049605899E-2,-4.387744516E-2,1.823488623E-2,5.646017077E-2
8.442719167E0,-7.570237853E-3,-5.646194518E-2,1.152451988E-2,5.812120364E-2
8.452659167E0,1.332353428E-2,-6.119374931E-2,6.204160862E-3,6.293395850E-2
8.462599167E0,2.230824158E-2,-5.493745208E-2,3.643264994E-3,5.940584704E-2
8.472540167E0,2.795608900E-2,-4.803782701E-2,-5.723609589E-3,5.587428249E-2
8.482480167E0,3.495034948E-2,-3.692098707E-2,-1.186725590E-2,5.220649363E-2
8.492421167E0,3.534264863E-2,-2.556453273E-2,-1.747748442E-2,4.699053742E-2
8.502361167E0,3.631523252E-2,-9.190087207E-3,-1.852384023E-2,4.178978909E-2
8.512302167E0,3.108353540E-2,9.519328363E-3,-2.381634340E-2,4.029915630E-2
8.522242167E0,2.394067124E-2,1.974453405E-2,-2.708217874E-2,4.118794447E-2
8.532182167E0,2.279051766E-2,1.923956349E-2,-3.379742056E-2,4.507587088E-2
8.542123167E0,2.836531214E-2,9.266024455E-3,-3.561422601E-2,4.646313847E-2
8.552063167E0,2.869462967E-2,-1.206968073E-2,-2.603587136E-2,4.058233066E-2
8.562004167E0,1.611305773E-2,-4.642419145E-2,-1.773746125E-2,5.224417396E-2
8.571944167E0,-2.805865835E-3,-7.877764851E-2,-1.180007868E-2,7.970591348E-2
8.581885167E0,-2.324349806E-2,-1.022286415E-1,-5.423671566E-3,1.049779575E-1
8.591825167E0,-3.626173362E-2,-1.110543162E-1,-2.996864961E-3,1.168629782E-1
8.601765167E0,-4.255318642E-2,-9.532035887E-2,-7.595078088E-3,1.046634115E-1
8.611706167E0,-4.037430882E-2,-5.324334279E-2,-1.404799987E-2,6.828092460E-2
8.621646167E0,-3.268602863E-2,1.852132962E-3,-1.224077959E-2,3.495201781E-2
8.631587167E0,-3.788479418E-2,7.012325525E-2,-1.210294105E-2,8.061643591E-2
8.641527167E0,-5.398439988E-2,1.284014881E-1,-1.143821515E-2,1.397572550E-1
8.651468167E0,-5.999923870E-2,1.542316973E-1,-2.717175521E-4,1.654913863E-1
8.661408167E0,-3.676022962E-2,1.216380671E-1,1.056868024E-2,1.275101206E-1
8.671349167E0,-7.612199523E-3,6.060481444E-2,2.662780695E-2,6.663279386E-2
8.681289167E0,-1.881076605E-3,-1.121105440E-2,3.926423937E-2,4.087672545E-2
8.691229167E0,-1.984911226E-2,-6.297382712E-2,3.866656125E-2,7.651661988E-2
8.701170167E0,-2.843407914E-2,-8.495528996E-2,4.047032073E-2,9.830434888E-2
8.711110167E0,-1.975542121E-2,-7.878430933E-2,4.474437982E-2,9.273243008E-2
8.721051167E0,4.691554350E-4,-5.679219216E-2,3.633118793E-2,6.742053407E-2
8.730991167E0,1.930802315E-2,-2.849081345E-2,2.328592353E-2,4.155430716E-2
8.740932167E0,3.459030390E-2,3.606668441E-3,1.305965148E-2,3.714904679E-2
8.750872167E0,4.466731846E-2,2.894385532E-2,9.998532012E-3,5.415613300E-2
8.760812167E0,4.232640192E-2,5.093038082E-2,7.379579358E-3,6.663247092E-2
8.770753167E0,3.347326815E-2,6.406529993E-2,3.067462239E-4,7.228358340E-2
8.780693167E0,2.593811974E-2,6.841237098E-2,-7.465156727E-3,7.354432081E-2
8.790634167E0,1.402322855E-2,6.333477050E-2,-1.130453032E-2,6.584630968E-2
8.800574167E0,1.027855743E-2,4.952868074E-2,-1.469579898E-2,5.267547310E-2
8.810515167E0,1.505902410E-2,2.780771628E-2,-1.173769124E-2,3.373153846E-2
8.820455167E0,1.898718812E-2,-2.862311434E-3,-1.184661500E-2,2.256210155E-2
8.830396167E0,2.057411149E-2,-2.940746211E-2,-4.964787979E-3,3.623178178E-2
8.840336167E0,1.621265337E-2,-4.653771222E-2,3.969545942E-4,4.928251577E-2
8.850276167E0,1.104631089E-2,-5.786051229E-2,5.604085512E-3,5.917149348E-2
8.860217167E0,9.307000786E-3,-6.443133205E-2,1.080071181E-2,6.598994006E-2
8.870157167E0,1.404975541E-2,-6.417915970E-2,8.519679308E-3,6.624911398E-2
8.880098167E0,2.078036405E-2,-5.517688021E-2,6.774509326E-3,5.934817282E-2
8.890038167E0,2.484245785E-2,-3.606045619E-2,6.402098574E-3,4.425484243E-2
8.899979167E0,1.644764282E-2,-1.571976393E-2,5.753352772E-3,2.346778644E-2
8.909919167E0,3.472554497E-3,6.378730759E-3,3.512019059E-3,8.067286948E-3
8.919859167E0,-9.011811577E-3,1.255753078E-2,4.950924776E-3,1.623009498E-2
8.929800167E0,-1.380024478E-2,1.658243476E-3,7.785025984E-3,1.593120074E-2
8.939740167E0,-6.908783223E-3,-2.657259442E-2,6.702983752E-3,2.826241410E-2
8.949681167E0,5.504257046E-3,-4.804963619E-2,5.250163376E-3,4.864800714E-2
8.959621167E0,1.562719792E-2,-5.642075092E-2,-1.663669245E-3,5.856857728E-2
8.969562167E0,1.098811626E-2,-5.395265669E-2,-1.292812452E-2,5.655761899E-2
8.979502167E0,-3.191326396E-4,-3.807515651E-2,-2.857020125E-2,4.760331699E-2
8.989442167E0,-9.628728963E-3,-1.743572205E-2,-2.998754755E-2,3.599958101E-2
8.999383167E0,-1.289696060E-2,-9.277926758E-3,-3.349439800E-2,3.707136651E-2
9.009323167E0,-1.313874498E-2,-1.360388193E-2,-3.050079197E-2,3.588858501E-2
9.019264167E0,-6.057133432E-3,-3.037061356E-2,-3.190640733E-2,4.446438869E-2
9.029204167E0,3.664857708E-3,-5.096897110E-2,-2.976274863E-2,5.913618523E-2
9.039145167E0,1.466238126E-2,-6.846939772E-2,-2.629717626E-2,7.479696069E-2
9.049085167E0,6.159865763E-3,-7.399964333E-2,-2.093712427E-2,7.715085438E-2
9.059026167E0,-1.265456807E-2,-6.529083848E-2,-1.984922402E-2,6.940477920E-2
9.068966167E0,-1.707182266E-2,-5.919066817E-2,-1.973344758E-2,6.468687100E-2
9.078906167E0,-3.696096595E-3,-5.760156363E-2,-1.883463189E-2,6.071527503E-2
9.088847167E0,1.800172031E-2,-6.047911942E-2,-1.367752068E-2,6.456671272E-2
9.098787250E0,2.736645937E-2,-5.933928490E-2,-8.104322478E-3,6.584644161E-2
9.108728250E0,1.295844465E-2,-4.761553928E-2,-1.308403676E-3,4.936469173E-2
9.118668250E0,-6.981174462E-3,-3.767635673E-2,3.693012986E-3,3.849523345E-2
9.128609250E0,-1.299466752E-2,-3.531450406E-2,3.726154566E-3,3.781348712E-2
9.138549250E0,-4.378543235E-3,-4.128903896E-2,-3.932230175E-4,4.152241567E-2
9.148489250E0,2.264613286E-3,-5.504305288E-2,-2.629461698E-3,5.515233642E-2
9.158430250E0,4.404729698E-3,-7.123054564E-2,-1.357718371E-2,7.264662548E-2
9.168370250E0,1.764813904E-3,-7.661908120E-2,-2.364298515E-2,8.020342211E-2
9.178311250E0,-2.004890703E-3,-7.543344051E-2,-3.498778865E-2,8.317673285E-2
9.188251250E0,-1.006090734E-2,-6.318473816E-2,-4.537950829E-2,7.843999468E-2
9.198192250E0,-1.605541632E-2,-4.071831331E-2,-4.840299487E-2,6.525800598E-2
9.208132250E0,-1.795790344E-2,-2.114051208E-2,-4.813546315E-2,5.555565101E-2
9.218072250E0,-2.374814823E-2,-8.424450643E-3,-4.142536223E-2,4.848717922E-2
9.228013250E0,-3.342097625E-2,1.115475898E-3,-3.883188590E-2,5.124569546E-2
9.237953250E0,-3.666177765E-2,3.272369970E-3,-3.697007149E-2,5.216876970E-2
9.247894250E0,-3.870739415E-2,-6.218358874E-3,-3.191399574E-2,5.055129547E-2
9.257834250E0,-3.172298893E-2,-1.961592212E-2,-2.529577352E-2,4.506671261E-2
9.267775250E0,-1.973868161E-2,-4.039692506E-2,-1.685249247E-2,4.801597243E-2
9.277715250E0,-1.643103734E-2,-5.465362594E-2,-1.356561854E-2,5.866024056E-2
9.287656250E0,-1.794967800E-2,-6.412588060E-2,-1.560090296E-2,6.839376928E-2
9.297596250E0,-2.092362940E-2,-6.759624183E-2,-1.808483154E-2,7.303500057E-2
9.307536250E0,-2.037893608E-2,-6.898337603E-2,-1.857257634E-2,7.428962105E-2
9.317477250E0,-1.325524691E-2,-6.365013123E-2,-2.404404059E-2,6.931923733E-2
9.327417250E0,-1.278478839E-2,-6.371470541E-2,-2.660395391E-2,7.021954758E-2
9.337358250E0,-1.592891477E-2,-5.639847368E-2,-2.678877674E-2,6.443723084E-2
9.347298250E0,-1.973321848E-2,-5.096960813E-2,-3.101937473E-2,6.284506721E-2
9.357239250E0,-1.814970374E-2,-4.995174706E-2,-3.222924843E-2,6.215555675E-2
9.367179250E0,-1.128344238E-2,-5.051089823E-2,-3.604770452E-2,6.307221189E-2
9.377119250E0,-7.658205577E-4,-5.046615750E-2,-3.768501803E-2,6.298873008E-2
9.387060250E0,-3.467863658E-3,-4.063642770E-2,-3.803389147E-2,5.576667674E-2
9.397000250E0,-1.313646976E-2,-3.136969358E-2,-3.753561154E-2,5.065122552E-2
9.406941250E0,-1.920583658E-2,-2.365851961E-2,-3.347173333E-2,4.526529179E-2
9.416881250E0,-1.789183170E-2,-1.892634854E-2,-2.737948485E-2,3.778836462E-2
9.426822250E0,-1.654660329E-2,-2.355116047E-2,-3.022024222E-2,4.173380260E-2
9.436762250E0,-1.162774395E-2,-3.217260912E-2,-2.963914163E-2,4.526322927E-2
9.446702250E0,-4.581232555E-3,-3.982937336E-2,-2.348026633E-2,4.646170015E-2
9.456643250E0,-2.500238596E-3,-4.511521384E-2,-1.654246449E-2,4.811742766E-2
9.466583250E0,4.168247804E-3,-4.879493639E-2,-1.581039838E-2,5.146152742E-2
9.476524250E0,4.151735920E-3,-4.404012859E-2,-8.164995350E-3,4.498262983E-2
9.486464250E0,7.002845872E-3,-4.088405147E-2,-4.497856367E-3,4.172261050E-2
9.496405250E0,1.263596397E-2,-3.739051521E-2,-6.892699748E-4,3.947395731E-2
9.506345250E0,2.007292770E-2,-3.201654926E-2,5.738893524E-4,3.779300467E-2
9.516286250E0,2.282823250E-2,-2.524173446E-2,-4.812551197E-4,3.403681777E-2
9.526226250E0,1.430701651E-2,-2.065778524E-2,-2.109795809E-3,2.521678113E-2
9.536166250E0,5.062651820E-3,-1.485022996E-2,-8.722250350E-4,1.571370579E-2
9.546107250E0,1.611872576E-3,-9.121099487E-3,2.083534375E-3,9.493877213E-3
9.556047250E0,5.218325183E-3,-6.144484505E-3,7.634627633E-3,1.110284408E-2
9.565988250E0,3.491873620E-3,-4.398885649E-4,1.014933176E-2,1.074223527E-2
9.575928250E0,-2.628070535E-3,2.419813769E-3,1.426338311E-2,1.470395699E-2
9.585869250E0,2.032963559E-3,1.280164463E-3,1.945873164E-2,1.960647849E-2
9.595809250E0,1.163974172E-3,-2.186738420E-3,2.332084812E-2,2.345204933E-2
9.605749250E0,5.574236624E-3,-1.278448850E-2,2.573397383E-2,2.927033770E-2
9.615690250E0,1.347956341E-2,-3.172488883E-2,2.612519264E-2,4.325150739E-2
9.625630250E0,2.475409396E-2,-5.091654137E-2,3.101774305E-2,6.455509071E-2
9.635571250E0,2.388643660E-2,-6.266027689E-2,3.212801740E-2,7.435779485E-2
9.645511250E0,2.675675415E-2,-6.012137607E-2,3.122274950E-2,7.283792857E-2
9.655452250E0,2.495911904E-2,-4.635895789E-2,2.522078343E-2,5.837977832E-2
9.665392250E0,3.184260800E-2,-2.914254554E-2,1.857189462E-2,4.699100887E-2
9.675332250E0,4.227074608E-2,-1.217687875E-2,5.784725770E-3,4.436840546E-2
9.685273250E0,5.746574327E-2,-8.978960104E-4,-8.066752926E-4,5.747841849E-2
9.695213250E0,6.957460195E-2,-2.863841830E-3,-8.453942835E-3,7.014482145E-2
9.705154250E0,6.284850836E-2,5.844488740E-3,-1.149925590E-2,6.415859987E-2
9.715094250E0,5.085629225E-2,9.593155235E-3,-1.173973922E-2,5.306799945E-2
9.725035250E0,4.026315734E-2,1.594332233E-2,-3.032983281E-3,4.341094739E-2
9.734975250E0,3.464308754E-2,2.368619666E-2,1.420887071E-3,4.199045542E-2
9.744915250E0,3.648480773E-2,2.994023822E-2,1.186891738E-2,4.866652093E-2
9.754856250E0,3.778389841E-2,3.750494868E-2,1.956252381E-2,5.671804380E-2
9.764796250E0,4.193452746E-2,3.971754760E-2,3.018281236E-2,6.516893694E-2
9.774737250E0,4.624831676E-2,4.151944071E-2,4.018244892E-2,7.400945860E-2
9.784677250E0,5.099951848E-2,3.479854763E-2,5.078590661E-2,7.994434385E-2
9.794618250E0,5.945079401E-2,2.072614059E-2,5.959990621E-2,8.669555140E-2
9.804558250E0,6.273151934E-2,1.905036042E-3,6.150503084E-2,8.787344024E-2
9.814499250E0,5.251722783E-2,-1.715760492E-2,5.920725688E-2,8.098112060E-2
9.824439250E0,3.155984357E-2,-3.319671378E-2,5.019845068E-2,6.795535286E-2
9.834379250E0,1.692790166E-2,-3.325716779E-2,3.626585752E-2,5.203657834E-2
9.844320250E0,1.777208410E-2,-2.682505175E-2,2.169747837E-2,3.880993355E-2
9.854260250E0,1.903868467E-2,-1.436412148E-2,1.292023342E-2,2.712437891E-2
9.864201250E0,1.901468821E-2,1.370284706E-3,3.791769035E-3,1.943742679E-2
9.874141250E0,1.850735582E-2,1.369113289E-2,-6.790834013E-3,2.400176589E-2
9.884082250E0,2.914692648E-2,1.956711896E-2,-9.879669175E-3,3.646948492E-2
9.894022250E0,4.680954292E-2,1.577557810E-2,-1.281527057E-2,5.103168950E-2
9.903962250E0,6.337932497E-2,4.922862630E-3,-1.255834661E-2,6.479880771E-2
9.913903250E0,7.206841558E-2,-9.697625414E-3,-1.395517401E-2,7.404490087E-2
9.923843250E0,5.836683884E-2,-1.909559965E-2,-7.657894865E-3,6.188677691E-2
9.933784250E0,3.885252401E-2,-1.778239384E-2,-5.458656698E-3,4.307585270E-2
9.943724250E0,2.883913368E-2,-2.436967753E-2,-2.067782916E-3,3.781339102E-2
9.953665250E0,3.452924266E-2,-3.516080603E-2,-3.481798340E-4,4.928155952E-2
9.963605250E0,4.379697517E-2,-4.831525683E-2,-1.966352109E-3,6.524113440E-2
9.973545250E0,4.412667453E-2,-5.445810407E-2,-6.634341087E-3,7.040499262E-2
9.983486250E0,3.085296229E-2,-4.582472891E-2,-1.251594350E-2,5.664326882E-2
9.993426250E0,1.289446745E-2,-2.683798969E-2,-1.988517679E-2,3.580454213E-2
1.000336725E1,-3.295840696E-3,-5.520191044E-3,-2.504351176E-2,2.585560977E-2
1.001330725E1,-1.803696901E-2,1.391129754E-2,-2.947447821E-2,3.725052102E-2
1.002324825E1,-2.215547115E-2,3.146995232E-2,-2.969986945E-2,4.861383595E-2
1.003318825E1,-2.883468010E-2,4.814986140E-2,-3.041333333E-2,6.383430718E-2
1.004312825E1,-2.194013633E-2,6.815121323E-2,-3.130626306E-2,7.814115147E-2
1.005306925E1,-2.885217778E-3,8.310726285E-2,-2.741058916E-2,8.755844915E-2
1.006300925E1,1.695559733E-2,9.665076435E-2,-2.627128921E-2,1.015826913E-1
1.007295025E1,3.619960323E-2,1.072040722E-1,-1.721520908E-2,1.144529938E-1
1.008289025E1,4.819286242E-2,9.724257886E-2,-4.445606843E-3,1.086205991E-1
1.009283125E1,4.996120185E-2,7.841136307E-2,1.403965987E-2,9.402965275E-2
1.010277117E1,4.299091548E-2,5.630533397E-2,2.474248782E-2,7.503799138E-2
1.011271117E1,3.243041784E-2,3.078213334E-2,4.267221689E-2,6.180768422E-2
1.012265217E1,1.208456326E-2,3.824897576E-3,5.121021345E-2,5.275559186E-2
1.013259217E1,-5.475255661E-3,-2.884782851E-2,5.275830999E-2,6.037892767E-2
1.014253317E1,-2.253478765E-2,-6.045728177E-2,5.031238124E-2,8.181830650E-2
1.015247317E1,-2.941186912E-2,-8.933579922E-2,4.691631719E-2,1.051051088E-1
1.016241417E1,-2.705006301E-2,-1.044885963E-1,3.365241364E-2,1.130577623E-1
1.017235417E1,-2.569717728E-2,-9.625197202E-2,1.459403615E-2,1.006865082E-1
1.018229517E1,-1.940258406E-2,-6.615568697E-2,-4.235357512E-3,6.907223350E-2
1.019223517E1,-6.160549819E-3,-3.557034209E-2,-2.455847152E-2,4.366142616E-2
1.020217517E1,1.777750440E-2,-9.917129762E-3,-4.293410853E-2,4.751554272E-2
1.021211617E1,4.344957694E-2,3.162719542E-3,-4.867960885E-2,6.532666262E-2
1.022205617E1,5.778679624E-2,6.384124048E-3,-4.390575737E-2,7.285455641E-2
1.023199717E1,6.087526307E-2,-1.912421780E-3,-4.567303136E-2,7.612805530E-2
1.024193717E1,5.553848669E-2,-2.065684833E-2,-3.628595918E-2,6.948308946E-2
1.025187817E1,5.163775384E-2,-5.438525230E-2,-2.583198622E-2,7.931900656E-2
1.026181817E1,4.633848369E-2,-8.890919387E-2,-1.430898998E-2,1.012760930E-1
1.027175817E1,4.285852984E-2,-1.156084463E-1,-1.087883860E-2,1.237760702E-1
1.028169917E1,5.361978337E-2,-1.352990866E-1,-3.756148973E-3,1.455851388E-1
1.029163917E1,5.724487826E-2,-1.509611309E-1,6.055202335E-3,1.615639335E-1
1.030158017E1,4.415924102E-2,-1.508463174E-1,8.142089471E-3,1.573878765E-1
1.031152017E1,2.080172114E-2,-1.361280978E-1,8.269389160E-3,1.379563460E-1
1.032146117E1,-1.768952585E-3,-1.117553711E-1,7.767711766E-3,1.120389642E-1
1.033140117E1,-1.966832578E-2,-7.829435170E-2,1.123168506E-2,8.150459678E-2
1.034134117E1,-3.108512051E-2,-4.382216930E-2,6.791524589E-3,5.415525871E-2
1.035128217E1,-3.468118608E-2,-2.765012532E-2,-4.104617983E-4,4.435631384E-2
1.036122217E1,-3.884919360E-2,-1.948175766E-2,-6.156937219E-3,4.389426615E-2
1.037116317E1,-3.966838121E-2,-3.086170927E-2,-1.216689311E-2,5.171130297E-2
1.038110317E1,-3.115587309E-2,-5.743181333E-2,-1.425810717E-2,6.687596901E-2
1.039104417E1,-2.919232473E-2,-8.643044531E-2,-1.403732970E-2,9.230092267E-2
1.040098417E1,-2.535248920E-2,-1.157464758E-1,-1.422494650E-2,1.193412940E-1
1.041092417E1,-1.432620268E-2,-1.364109963E-1,-1.470937580E-2,1.379476920E-1
1.042086517E1,-7.203312591E-3,-1.501161605E-1,-2.038190886E-2,1.516646682E-1
1.043080517E1,4.843762610E-3,-1.489544958E-1,-2.128951438E-2,1.505461633E-1
1.044074617E1,1.921265014E-2,-1.409460753E-1,-1.955150068E-2,1.435868492E-1
1.045068617E1,2.287449501E-2,-1.236749366E-1,-2.939640917E-2,1.291622287E-1
1.046062717E1,2.386227250E-2,-1.002877802E-1,-3.195692599E-2,1.079272534E-1
1.047056717E1,2.863332443E-2,-8.870383352E-2,-3.296040371E-2,9.886670603E-2
1.048050717E1,4.155279696E-2,-8.546232432E-2,-3.263022006E-2,1.004747484E-1
1.049044817E1,4.361940920E-2,-8.697633445E-2,-3.674346954E-2,1.040077794E-1
1.050038817E1,3.377387673E-2,-9.145475179E-2,-4.224063829E-2,1.062493195E-1
1.051032917E1,2.430767380E-2,-9.355705231E-2,-4.423161969E-2,1.063024987E-1
1.052026917E1,2.250778861E-2,-8.507234603E-2,-4.221728444E-2,9.760227309E-2
1.053021017E1,2.160524204E-2,-7.446417212E-2,-3.947609290E-2,8.700609936E-2
1.054015017E1,1.547886617E-2,-6.196744367E-2,-3.773550689E-2,7.418576585E-2
1.055009017E1,1.079516485E-2,-4.700127989E-2,-4.450633004E-2,6.562369473E-2
1.056003117E1,2.089095116E-2,-3.422442824E-2,-4.116155580E-2,5.746317955E-2
1.056997117E1,3.349649161E-2,-1.925772801E-2,-4.067286476E-2,5.609952733E-2
1.057991217E1,4.217613488E-2,3.426345531E-3,-4.497566074E-2,6.175254049E-2
1.058985217E1,4.723187909E-2,3.422953188E-2,-4.353915155E-2,7.278852226E-2
1.059979317E1,4.910312593E-2,6.837650388E-2,-2.740456536E-2,8.852950617E-2
1.060973317E1,4.266972840E-2,1.038759053E-1,-1.226689108E-2,1.129663049E-1
1.061967317E1,2.033744752E-2,1.277891248E-1,-6.585854571E-4,1.293990183E-1
1.062961417E1,-5.849414971E-3,1.392087638E-1,1.700296625E-2,1.403652252E-1
1.063955417E1,-1.921607926E-2,1.347112805E-1,4.207514226E-2,1.424314024E-1
1.064949517E1,-1.757903397E-2,1.186979637E-1,6.237961352E-2,1.352384753E-1
1.065943517E1,-1.372871175E-2,9.101349860E-2,8.188818395E-2,1.231974396E-1
1.066937617E1,-2.404073812E-2,5.486055836E-2,1.038595289E-1,1.198934514E-1
1.067931617E1,-4.557053000E-2,1.896647178E-2,1.314517409E-1,1.404135336E-1
1.068925617E1,-7.600770891E-2,-1.839310490E-2,1.486764103E-1,1.679885505E-1
1.069919717E1,-1.041487902E-1,-5.903314054E-2,1.590503305E-1,1.990700626E-1
1.070913717E1,-1.149119511E-1,-1.018809974E-1,1.594170481E-1,2.213555723E-1
1.071907817E1,-1.019032672E-1,-1.353120208E-1,1.485172063E-1,2.252797803E-1
1.072901817E1,-7.260956615E-2,-1.544223279E-1,1.216126308E-1,2.095424454E-1
1.073895917E1,-3.365554661E-2,-1.583113670E-1,8.761877567E-2,1.840441105E-1
1.074889917E1,1.150500588E-2,-1.435340196E-1,5.182163045E-2,1.530354904E-1
1.075884017E1,5.028387159E-2,-1.236742735E-1,2.430099249E-2,1.356994175E-1
1.076878017E1,8.449723572E-2,-1.083653569E-1,2.023116685E-3,1.374297145E-1
1.077872017E1,1.043932438E-1,-1.027202234E-1,-1.246524137E-2,1.469856315E-1
1.078866117E1,1.154762581E-1,-1.094231382E-1,-1.908719167E-2,1.602264343E-1
1.079860117E1,1.258445233E-1,-1.244185045E-1,-1.231179759E-2,1.773933163E-1
1.080854217E1,1.226812303E-1,-1.405085325E-1,-3.242669161E-3,1.865578915E-1
1.081848217E1,1.169854626E-1,-1.502521932E-1,3.717313753E-3,1.904603330E-1
1.082842317E1,1.010270044E-1,-1.455865949E-1,4.524784163E-3,1.772636057E-1
1.083836317E1,9.700127691E-2,-1.331640035E-1,3.851698479E-3,1.647930069E-1
1.084830317E1,9.644147754E-2,-1.078629047E-1,3.170994576E-3,1.447253260E-1
1.085824417E1,9.094142914E-2,-8.113599569E-2,1.912513166E-3,1.218895034E-1
1.086818417E1,7.611641288E-2,-5.775238201E-2,-1.574630151E-3,9.555901526E-2
1.087812517E1,5.412274972E-2,-4.339385405E-2,4.560768139E-4,6.937223229E-2
1.088806517E1,3.972863033E-2,-3.775807098E-2,5.039110780E-3,5.504024554E-2
1.089800617E1,1.994477399E-2,-4.988645390E-2,1.748811081E-2,5.650032134E-2
1.090794617E1,-1.332476363E-2,-6.142673269E-2,3.017993644E-2,6.972532810E-2
1.091788617E1,-5.300900340E-2,-7.973960042E-2,4.858030006E-2,1.073704050E-1
1.092782717E1,-8.631502837E-2,-9.394596517E-2,5.715274811E-2,1.397947249E-1
1.093776717E1,-1.025163382E-1,-1.114505753E-1,6.828656793E-2,1.661140743E-1
1.094770817E1,-9.896688163E-2,-1.298687309E-1,6.791745871E-2,1.768420542E-1
1.095764817E1,-7.719250768E-2,-1.473053843E-1,6.541725993E-2,1.787091978E-1
1.096758917E1,-4.974277690E-2,-1.560466886E-1,5.931755900E-2,1.741938164E-1
1.097752917E1,-1.605358347E-2,-1.650952101E-1,4.650093615E-2,1.722686361E-1
1.098746917E1,1.790944301E-2,-1.686297506E-1,3.366290033E-2,1.728870492E-1
1.099741017E1,5.406246334E-2,-1.677236408E-1,1.708140969E-2,1.770472936E-1
1.100735017E1,8.409041166E-2,-1.662418544E-1,8.910033852E-3,1.865125738E-1
1.101729117E1,9.561485052E-2,-1.619571596E-1,1.603414188E-3,1.880821420E-1
1.102723117E1,1.003981605E-1,-1.528065354E-1,-9.045768529E-3,1.830613389E-1
1.103717217E1,9.972091764E-2,-1.260945052E-1,-1.441443339E-2,1.614058907E-1
1.104711217E1,1.007379740E-1,-9.019429237E-2,-2.109870128E-2,1.368513975E-1
1.105705217E1,1.031628549E-1,-4.580175504E-2,-3.190977126E-2,1.172970967E-1
1.106699317E1,1.026885435E-1,8.754431270E-3,-4.268944636E-2,1.115525251E-1
1.107693317E1,9.234670550E-2,7.211603224E-2,-5.873153731E-2,1.310649823E-1
1.108687417E1,8.813038468E-2,1.332710087E-1,-6.897378713E-2,1.740273248E-1
1.109681417E1,7.965026796E-2,1.818681210E-1,-8.373358846E-2,2.154796799E-1
1.110675500E1,6.579624116E-2,2.092749774E-1,-9.231536090E-2,2.380069062E-1
1.111669500E1,4.315369949E-2,2.070181072E-1,-8.113449067E-2,2.264984416E-1
1.112663500E1,8.928085677E-3,1.833468676E-1,-5.612767115E-2,1.919533798E-1
1.113657600E1,-3.574639559E-2,1.376182884E-1,-3.141386807E-2,1.456139733E-1
1.114651600E1,-7.350469381E-2,8.374573290E-2,-7.820926607E-3,1.117025277E-1
1.115645700E1,-1.070273966E-1,4.909093305E-2,6.413650699E-3,1.179233575E-1
1.116639700E1,-1.303420514E-1,2.522102371E-2,9.117824957E-3,1.330724807E-1
1.117633800E1,-1.484505385E-1,2.144163661E-2,5.368846003E-3,1.500870770E-1
1.118627800E1,-1.429684162E-1,1.863652840E-2,-4.576195963E-3,1.442505799E-1
1.119621800E1,-1.078674272E-1,3.253296390E-2,-9.459091350E-3,1.130630355E-1
1.120615900E1,-4.815509915E-2,4.907971621E-2,-3.165094554E-2,7.569355634E-2
1.121609900E1,1.112964470E-2,7.701526582E-2,-6.053055823E-2,9.858584402E-2
1.122604000E1,6.259976327E-2,1.185054481E-1,-9.032840282E-2,1.616214464E-1
1.123598000E1,9.076119214E-2,1.674035937E-1,-1.096019819E-1,2.197137948E-1
1.124592100E1,9.504515678E-2,2.112940848E-1,-1.197504923E-1,2.608044334E-1
1.125586100E1,7.365607470E-2,2.427200526E-1,-1.149120852E-1,2.784654891E-1
1.126580100E1,3.133231401E-2,2.583533227E-1,-8.530172706E-2,2.738695637E-1
1.127574200E1,-1.547127217E-2,2.539927363E-1,-4.803230986E-2,2.589570875E-1
1.128568200E1,-6.438022852E-2,2.395647913E-1,-1.679422893E-2,2.486325586E-1
1.129562300E1,-1.086637676E-1,2.151093334E-1,3.530163551E-3,2.410234465E-1
1.130556300E1,-1.269154847E-1,1.647068858E-1,1.172311231E-2,2.082626463E-1
1.131550400E1,-1.228185222E-1,9.614131600E-2,-6.851342041E-4,1.559743935E-1
1.132544400E1,-8.833458275E-2,2.973512560E-2,3.303291742E-4,9.320560778E-2
1.133538400E1,-3.943962231E-2,-2.674799599E-2,1.038279850E-3,4.766568076E-2
1.134532500E1,1.182223391E-2,-6.398058683E-2,-4.597768188E-3,6.522591646E-2
1.135526500E1,7.932947576E-2,-7.605624199E-2,-1.774996147E-2,1.113228584E-1
1.136520600E1,1.378346086E-1,-5.447424576E-2,-2.752802335E-2,1.507435399E-1
1.137514600E1,1.848533899E-1,-1.987950876E-2,-4.531787708E-2,1.913626938E-1
1.138508700E1,2.069922388E-1,2.242480405E-2,-6.316559017E-2,2.175742414E-1
1.139502700E1,2.035761029E-1,7.143809646E-2,-7.220619172E-2,2.275090447E-1
1.140496700E1,1.752709597E-1,1.117618233E-1,-7.068473101E-2,2.195608018E-1
1.141490800E1,1.562285274E-1,1.424725801E-1,-6.257736683E-2,2.205033235E-1
1.142484800E1,1.420583874E-1,1.610004455E-1,-5.820152536E-2,2.224615617E-1
1.143478900E1,1.411997229E-1,1.612057090E-1,-5.366061255E-2,2.209165084E-1
1.144472900E1,1.498278379E-1,1.594781131E-1,-5.718850344E-2,2.261684649E-1
1.145467000E1,1.554206461E-1,1.402576864E-1,-7.515736669E-2,2.224329687E-1
1.146461000E1,1.427999288E-1,1.048482955E-1,-1.001183763E-1,2.034912136E-1
1.147455000E1,1.026156023E-1,6.136738881E-2,-9.986996651E-2,1.557880883E-1
1.148449100E1,4.620186239E-2,1.765453257E-2,-8.376556635E-2,9.727777092E-2
1.149443100E1,-1.191187277E-2,-3.805092350E-2,-7.622373849E-2,8.602222853E-2
1.150437200E1,-6.994508207E-2,-1.073216125E-1,-7.086466253E-2,1.463968696E-1
1.151431200E1,-1.182319075E-1,-1.727600545E-1,-8.020810783E-2,2.241833199E-1
1.152425300E1,-1.475040466E-1,-2.212844491E-1,-9.685180336E-2,2.830274244E-1
1.153419300E1,-1.508673877E-1,-2.455554605E-1,-1.158600450E-1,3.106155225E-1
1.154413300E1,-1.361371875E-1,-2.447740883E-1,-1.367874444E-1,3.117025714E-1
1.155407400E1,-1.079366431E-1,-2.258435786E-1,-1.554091275E-1,2.946313592E-1
1.156401400E1,-7.025158405E-2,-1.866130829E-1,-1.720086038E-1,2.633375924E-1
1.157395500E1,-2.128151432E-2,-1.273471713E-1,-1.861511320E-1,2.265445846E-1
1.158389500E1,3.827608749E-2,-4.677243531E-2,-1.848773360E-1,1.945053957E-1
1.159383600E1,8.607181907E-2,4.239684716E-2,-1.731174588E-1,1.979280304E-1
1.160377600E1,1.103073880E-1,1.276957542E-1,-1.509956419E-1,2.264367668E-1
1.161371600E1,1.120781228E-1,2.087538540E-1,-1.178792417E-1,2.646416309E-1
1.162365700E1,1.026606485E-1,2.670874596E-1,-8.428266644E-2,2.982926209E-1
1.163359700E1,1.015096083E-1,3.027506769E-1,-6.310583651E-2,3.254911973E-1
1.164353800E1,1.141135544E-1,3.126943707E-1,-6.187971681E-2,3.385687111E-1
1.165347800E1,1.524202824E-1,3.079045415E-1,-6.104882807E-2,3.489471429E-1
1.166341900E1,2.017244548E-1,3.061351180E-1,-5.159993470E-2,3.702350867E-1
1.167335900E1,2.552430630E-1,3.128909469E-1,-3.879646584E-2,4.056537090E-1
1.168329900E1,3.028742075E-1,3.079537153E-1,-2.592807263E-2,4.327130011E-1
1.169324000E1,3.369953036E-1,2.806300521E-1,-9.090951644E-3,4.386361889E-1
1.170318000E1,3.680315018E-1,2.449991107E-1,1.147930417E-2,4.422708728E-1
1.171312100E1,3.907829523E-1,1.986316442E-1,3.930101916E-2,4.401254549E-1
1.172306100E1,3.951444030E-1,1.509067267E-1,7.270132005E-2,4.291822705E-1
1.173300200E1,3.936484754E-1,9.618726373E-2,9.474419802E-2,4.161581129E-1
1.174294200E1,3.959555626E-1,4.705860838E-2,1.037510112E-1,4.120189225E-1
1.175288200E1,4.033895731E-1,-6.500193384E-3,1.093814969E-1,4.180068326E-1
1.176282300E1,4.242136180E-1,-5.903077871E-2,1.017270535E-1,4.402161060E-1
1.177276300E1,4.598876238E-1,-1.000643596E-1,8.677331358E-2,4.785803073E-1
1.178270400E1,5.044572353E-1,-1.308060288E-1,6.578999758E-2,5.252767302E-1
1.179264400E1,5.424174666E-1,-1.428471357E-1,5.480221286E-2,5.635825537E-1
1.180258500E1,5.724858642E-1,-1.394058019E-1,4.289042577E-2,5.907737561E-1
1.181252500E1,5.949035287E-1,-1.153806448E-1,3.937538341E-2,6.072670932E-1
1.182246500E1,6.016889811E-1,-6.004256010E-2,4.571104050E-2,6.064027030E-1
1.183240600E1,5.913686156E-1,2.579160500E-3,5.286484584E-2,5.937324175E-1
1.184234600E1,5.685431957E-1,7.403789461E-2,5.473358557E-2,5.759502935E-1
1.185228700E1,5.386486650E-1,1.272587776E-1,5.835068971E-2,5.565446826E-1
1.186222700E1,5.158123374E-1,1.651060134E-1,5.422811955E-2,5.443005163E-1
1.187216800E1,4.988917410E-1,1.770796329E-1,4.994392768E-2,5.317373050E-1
1.188210800E1,4.812304676E-1,1.747405827E-1,5.298845470E-2,5.147084714E-1
1.189204800E1,4.573507905E-1,1.547523290E-1,5.584217608E-2,4.860415389E-1
1.190198900E1,4.404229224E-1,1.280623972E-1,5.816578493E-2,4.623370920E-1
1.191192900E1,4.381147027E-1,1.041905954E-1,5.169703066E-2,4.532910278E-1
1.192187000E1,4.471172690E-1,9.220663458E-2,4.553953558E-2,4.587916358E-1
1.193181000E1,4.407427013E-1,1.158965081E-1,6.024967134E-2,4.596913663E-1
1.194175100E1,4.089506865E-1,1.758546531E-1,8.576168865E-2,4.533437881E-1
1.195169100E1,3.621464670E-1,2.678847313E-1,1.230261698E-1,4.669558130E-1
1.196163100E1,3.142237067E-1,3.636565208E-1,1.588118672E-1,5.061657952E-1
1.197157200E1,2.837591469E-1,4.359609783E-1,1.670916528E-1,5.463523117E-1
1.198151200E1,2.852212191E-1,4.908572435E-1,1.631288677E-1,5.906801206E-1
1.199145300E1,2.849580646E-1,5.286093950E-1,1.581000984E-1,6.209868213E-1
1.200139300E1,2.683737576E-1,5.392112136E-1,1.878651828E-1,6.309251410E-1
1.201133400E1,2.296675891E-1,5.274668336E-1,2.426812351E-1,6.243898172E-1
1.202127400E1,1.880671382E-1,5.136634111E-1,2.953242064E-1,6.216395541E-1
1.203121400E1,1.722485721E-1,4.735980034E-1,3.417489827E-1,6.088981906E-1
1.204115500E1,1.908390373E-1,4.228109717E-1,3.603653014E-1,5.874111051E-1
1.205109500E1,2.244381756E-1,3.693245947E-1,3.538377583E-1,5.585466052E-1
1.206103600E1,2.497813404E-1,3.173879087E-1,3.371085525E-1,5.260874250E-1
1.207097600E1,2.680361569E-1,2.671083808E-1,3.200644851E-1,4.956122911E-1
1.208091700E1,3.031403720E-1,2.136062831E-1,3.020687103E-1,4.782961792E-1
1.209085700E1,3.612048328E-1,1.711228639E-1,2.787794173E-1,4.873088644E-1
1.210079688E1,4.340193868E-1,1.500532627E-1,2.434416860E-1,5.197621227E-1
1.211073788E1,5.266214013E-1,1.565877348E-1,2.041388303E-1,5.861079091E-1
1.212067788E1,6.193252206E-1,1.972550005E-1,1.308819205E-1,6.630258978E-1
1.213061888E1,6.982507110E-1,2.708725333E-1,3.310677037E-2,7.496812942E-1
1.214055888E1,7.185980678E-1,3.757590055E-1,-3.248928115E-2,8.115624231E-1
1.215049988E1,6.295280457E-1,4.781265259E-1,-4.807355255E-2,7.919732328E-1
1.216043988E1,4.030080736E-1,5.340838432E-1,-7.976731285E-3,6.691223260E-1
1.217037987E1,1.240244731E-1,5.527537465E-1,2.545737289E-2,5.670686484E-1
1.218032088E1,-9.524556249E-2,5.491446257E-1,2.463924885E-2,5.578876497E-1
1.219026087E1,-2.553412616E-1,5.018649101E-1,-2.067900822E-2,5.634670969E-1
1.220020188E1,-4.544631541E-1,3.510650098E-1,-1.012806445E-1,5.831304901E-1
1.221014187E1,-7.175456882E-1,4.178599641E-2,-1.839044243E-1,7.419155756E-1
1.222008288E1,-9.592994452E-1,-3.229246140E-1,-2.220438123E-1,1.036262122E0
1.223002287E1,-1.075319529E0,-6.252734661E-1,-2.461297661E-1,1.268013745E0
1.223996287E1,-1.079759240E0,-7.502114177E-1,-3.250943720E-1,1.354394159E0
1.224990387E1,-1.120096564E0,-6.919156909E-1,-3.984215558E-1,1.375537485E0
1.225984387E1,-1.293448091E0,-5.057985783E-1,-4.315344989E-1,1.454325338E0
1.226978487E1,-1.594588161E0,-2.525240183E-1,-4.049119055E-1,1.664461905E0
1.227972487E1,-2.006926775E0,-1.774373278E-2,-3.906741142E-1,2.044675080E0
1.228966587E1,-2.473307133E0,1.980831623E-1,-3.576075435E-1,2.506864230E0
1.229960587E1,-2.982585192E0,5.239443779E-1,-2.759787142E-1,3.040805220E0
1.230954588E1,-3.350137234E0,8.605402112E-1,-1.756817400E-1,3.463352857E0
1.231948687E1,-3.397559881E0,9.810271859E-1,-1.610495448E-1,3.540023226E0
1.232942688E1,-3.168677092E0,8.050969839E-1,-2.308108807E-1,3.277494367E0
1.233936787E1,-2.810540438E0,4.648035169E-1,-3.110052943E-1,2.865642014E0
1.234930788E1,-2.463387728E0,8.996328712E-2,-3.422589004E-1,2.488677087E0
1.235924888E1,-2.192725658E0,-2.201679349E-1,-2.842070460E-1,2.222002110E0
1.236918888E1,-1.988750100E0,-4.542113543E-1,-1.749150306E-1,2.047444794E0
1.237912888E1,-1.834398627E0,-6.293343902E-1,-6.699948013E-2,1.940507415E0
1.238906988E1,-1.720412374E0,-7.122005820E-1,1.358753629E-2,1.862050758E0
1.239900988E1,-1.663030386E0,-4.890308678E-1,3.348480910E-3,1.733445259E0
1.240895088E1,-1.754904509E0,3.416131735E-1,-1.315971464E-1,1.792681568E0
1.241889088E1,-1.943865061E0,1.626513481E0,-3.128825128E-1,2.553831033E0
1.242883188E1,-2.101910591E0,2.909192562E0,-4.691756964E-1,3.619607069E0
1.243877188E1,-2.187149048E0,3.910272598E0,-5.578541756E-1,4.514981067E0
1.244871187E1,-2.168376446E0,4.561892509E0,-5.790730715E-1,5.084097295E0
1.245865288E1,-2.079711914E0,4.881677151E0,-5.637606978E-1,5.336084667E0
1.246859287E1,-1.881664157E0,4.798668385E0,-5.424978733E-1,5.182873933E0
1.247853388E1,-1.523950815E0,4.075217247E0,-5.349070430E-1,4.383599804E0
1.248847387E1,-1.049949050E0,2.801431417E0,-5.518675447E-1,3.042198018E0
1.249841487E1,-6.107211113E-1,1.407620549E0,-5.948653817E-1,1.645673330E0
1.250835487E1,-2.587948143E-1,2.749647796E-1,-6.667476296E-1,7.662459054E-1
1.251829488E1,1.540374197E-2,-3.622071743E-1,-7.504020333E-1,8.333873793E-1
1.252823587E1,1.060495377E-1,-6.537130475E-1,-8.609243035E-1,1.086175819E0
1.253817588E1,2.327502519E-2,-7.792813778E-1,-9.616799951E-1,1.238002264E0
1.254811687E1,-9.969081730E-2,-7.147786617E-1,-1.002086878E0,1.234918987E0
1.255805688E1,-2.175002694E-1,-6.452957392E-1,-9.667879939E-1,1.182536250E0
1.256799688E1,-3.129176199E-1,-6.710041761E-1,-8.705971837E-1,1.142848852E0
1.257793788E1,-3.812077343E-1,-7.561672330E-1,-7.325868607E-1,1.119728418E0
1.258787788E1,-4.178914428E-1,-8.408885598E-1,-5.647219419E-1,1.095736145E0
1.259781888E1,-4.079834223E-1,-8.752140403E-1,-3.946328163E-1,1.043161133E0
1.260775888E1,-3.570683599E-1,-8.868259788E-1,-2.425471842E-1,9.862997855E-1
1.261769988E1,-3.140953481E-1,-9.015388489E-1,-1.176081747E-1,9.619042918E-1
1.262763988E1,-3.119665980E-1,-9.437397718E-1,-2.275342681E-2,9.942261482E-1
1.263757987E1,-3.213630319E-1,-9.395807385E-1,3.900580853E-2,9.937844915E-1
1.264752088E1,-2.802639902E-1,-8.303793073E-1,9.977769852E-2,8.820619520E-1
1.265746087E1,-1.918576807E-1,-6.805596948E-1,1.570604146E-1,7.243195715E-1
1.266740188E1,-7.292945683E-2,-5.626964569E-1,2.083405554E-1,6.044433764E-1
1.267734187E1,7.198858261E-2,-4.962950647E-1,2.427432686E-1,5.571493890E-1
1.268728288E1,2.418404669E-1,-4.469134808E-1,2.425568402E-1,5.630739662E-1
1.269722287E1,4.266899526E-1,-3.778145611E-1,2.127941400E-1,6.083498206E-1
1.270716287E1,6.106637120E-1,-2.218531668E-1,1.492275000E-1,6.666317151E-1
1.271710387E1,7.609139085E-1,6.481456012E-2,8.279707283E-2,7.681446860E-1
1.272704387E1,8.456976414E-1,4.116862714E-1,1.319789700E-2,9.406722443E-1
1.273698487E1,8.339653611E-1,6.533244252E-1,-5.458168313E-2,1.060806386E0
1.274692487E1,7.282886505E-1,6.504390836E-1,-9.714580327E-2,9.812811356E-1
1.275686587E1,5.837267041E-1,4.193627238E-1,-1.150156111E-1,7.278946009E-1
1.276680587E1,4.443357885E-1,7.435888052E-2,-1.453045756E-1,4.733676750E-1
1.277674588E1,3.164350688E-1,-2.576398253E-1,-2.077226788E-1,4.578844217E-1
1.278668687E1,1.936836541E-1,-4.725931883E-1,-2.934769690E-1,5.890555244E-1
1.279662688E1,7.703720778E-2,-5.369282365E-1,-3.846864998E-1,6.649889967E-1
1.280656787E1,-3.525562957E-2,-5.013063550E-1,-4.895743132E-1,7.015939204E-1
1.281650788E1,-1.134135500E-1,-4.717071950E-1,-6.081880331E-1,7.779865004E-1
1.282644887E1,-1.243612692E-1,-5.086539984E-1,-7.090911865E-1,8.814788291E-1
1.283638888E1,-9.150025994E-2,-6.599676013E-1,-7.732555270E-1,1.020712321E0
1.284632888E1,-2.367951162E-2,-9.159641862E-1,-7.741885185E-1,1.199549487E0
1.285626988E1,9.774758667E-2,-1.272982001E0,-6.927676797E-1,1.452571797E0
1.286620988E1,2.512311041E-1,-1.698466659E0,-4.828976691E-1,1.783562787E0
1.287615088E1,3.861833513E-1,-2.041168213E0,-1.547829062E-1,2.083137778E0
1.288609088E1,5.230977535E-1,-2.078917503E0,1.604754031E-1,2.149716633E0
1.289603188E1,6.137163043E-1,-1.704798579E0,3.683186173E-1,1.848957680E0
1.290597188E1,5.513101220E-1,-9.302521348E-1,4.649087489E-1,1.177052263E0
1.291591187E1,1.460196227E-1,9.257614613E-2,4.851410389E-1,5.150280581E-1
1.292585288E1,-7.792416811E-1,7.428405285E-1,4.144125879E-1,1.153588939E0
1.293579287E1,-1.424540639E0,3.222390115E-1,2.139583081E-1,1.476120649E0
1.294573388E1,-1.398735166E0,-2.636184096E-1,9.967445396E-3,1.423395265E0
1.295567387E1,-1.085876822E0,-2.603741586E-1,-3.165403381E-2,1.117105704E0
1.296561488E1,-6.442881227E-1,-5.260643736E-2,2.034217492E-2,6.467522140E-1
1.297555487E1,-1.689759344E-1,-2.894805744E-3,7.573007047E-2,1.851925751E-1
1.298549487E1,3.472802043E-1,-1.842845827E-1,1.037192568E-1,4.065981210E-1
1.299543587E1,1.120303750E0,-8.304385543E-1,-3.345937282E-2,1.394929466E0
1.300537588E1,1.731331229E0,-1.353077412E0,-6.471562386E-2,2.198298073E0
1.301531687E1,2.020254135E0,-1.115728498E0,2.115162462E-1,2.317545247E0
1.302525688E1,2.047634602E0,-2.471638769E-1,6.538269520E-1,2.163651341E0
1.303519688E1,1.843715310E0,8.999088407E-1,1.079906821E0,2.318473810E0
1.304513788E1,1.507764697E0,2.090571642E0,1.412798762E0,2.939361243E0
1.305507788E1,1.166287065E0,2.897181511E0,1.712441683E0,3.561789261E0
1.306501888E1,8.426953554E-1,3.153670788E0,1.714769483E0,3.687303795E0
1.307495888E1,6.188532114E-1,2.865895510E0,1.512841702E0,3.299246336E0
1.308489988E1,6.104139686E-1,2.182212591E0,1.325410724E0,2.625142014E0
1.309483988E1,8.965213895E-1,1.206586838E0,1.299006581E0,1.986710975E0
1.310478025E1,1.504743576E0,2.482780367E-1,1.422168136E0,2.085295523E0
1.311472125E1,2.168360949E0,-2.842524648E-1,1.463152289E0,2.631236076E0
1.312466125E1,2.482102871E0,-3.029789925E-1,1.287204623E0,2.812388073E0
1.313460225E1,2.386964083E0,3.551329300E-2,9.740783572E-1,2.578310953E0
1.314454225E1,1.990793228E0,4.884476662E-1,6.364427805E-1,2.146368611E0
1.315448325E1,1.447426081E0,6.697930098E-1,3.995670974E-1,1.644177241E0
1.316442325E1,9.059090614E-1,6.264864206E-1,3.165122271E-1,1.146008923E0
1.317436325E1,4.892266095E-1,6.048147082E-1,3.408588469E-1,8.493104616E-1
1.318430425E1,2.011327595E-1,8.087965846E-1,4.227515757E-1,9.345186980E-1
1.319424425E1,5.236725509E-2,1.214923620E0,5.338605046E-1,1.328077095E0
1.320418525E1,6.656826288E-2,1.709938645E0,6.485941410E-1,1.830026192E0
1.321412525E1,4.801417291E-1,1.935003638E0,8.048825264E-1,2.150025823E0
1.322406625E1,9.908587933E-1,1.306317568E0,8.178534508E-1,1.832252986E0
1.323400625E1,1.206166148E0,9.857788682E-2,5.691321492E-1,1.337335328E0
1.324394625E1,1.100546002E0,-1.047759295E0,2.399327755E-1,1.538365620E0
1.325388725E1,8.479048610E-1,-1.570262909E0,5.290190130E-2,1.785347828E0
1.326382725E1,5.143736005E-1,-1.472497463E0,-1.455296297E-4,1.559752865E0
1.327376825E1,1.373427361E-1,-1.272294283E0,1.477056928E-2,1.279771050E0
1.328370825E1,-1.576445103E-1,-1.309328079E0,1.243026368E-2,1.318842797E0
1.329364925E1,-2.874515057E-1,-1.567007065E0,-1.168758795E-2,1.593196821E0
1.330358925E1,-2.528911531E-1,-1.907158136E0,-2.644581720E-2,1.924033647E0
1.331352925E1,-1.360851824E-1,-2.203231812E0,-2.402500436E-2,2.207561277E0
1.332347025E1,-1.087448932E-2,-2.406390429E0,-3.718949482E-2,2.406702351E0
1.333341025E1,9.869727492E-2,-2.474981070E0,-7.832334936E-2,2.478186231E0
1.334335125E1,2.023895085E-1,-2.382308245E0,-1.454532743E-1,2.395310155E0
1.335329125E1,2.987711728E-1,-2.119399548E0,-1.990480572E-1,2.149590376E0
1.336323225E1,3.585586846E-1,-1.738586664E0,-2.362245619E-1,1.790823822E0
1.337317225E1,3.697194755E-1,-1.323641419E0,-2.587831318E-1,1.398459083E0
1.338311225E1,3.234583437E-1,-9.778752923E-1,-2.844590247E-1,1.068542149E0
1.339305325E1,2.676078677E-1,-6.937714219E-1,-3.116728067E-1,8.062708572E-1
1.340299325E1,2.625936866E-1,-4.230501652E-1,-3.307864666E-1,5.977847213E-1
1.341293425E1,3.270738721E-1,-1.409156621E-1,-3.380901814E-1,4.910595813E-1
1.342287425E1,4.437871873E-1,1.235639304E-1,-3.334544301E-1,5.686888160E-1
1.343281425E1,5.894125700E-1,3.477022052E-1,-3.105120957E-1,7.514797154E-1
1.344275525E1,7.153086066E-1,4.777930081E-1,-2.830234766E-1,9.055687989E-1
1.345269525E1,8.290333152E-1,5.213854909E-1,-2.554150224E-1,1.012114569E0
1.346263625E1,9.329975247E-1,5.412707925E-1,-2.167281508E-1,1.100195230E0
1.347257625E1,1.030188322E0,5.558167100E-1,-1.607932597E-1,1.181556036E0
1.348251725E1,1.115105152E0,6.020005941E-1,-1.207684875E-1,1.272968673E0
1.349245725E1,1.184037805E0,6.207316518E-1,-8.431167901E-2,1.339537893E0
1.350239725E1,1.230598927E0,5.969187021E-1,-4.113611579E-2,1.368348579E0
1.351233825E1,1.238953829E0,5.319908261E-1,-2.381265163E-3,1.348342130E0
1.352227825E1,1.195447803E0,4.651776254E-1,5.706843361E-2,1.284033675E0
1.353221925E1,1.084402680E0,4.350021183E-1,1.534919143E-1,1.178437857E0
1.354215925E1,9.006828666E-1,4.667117000E-1,3.107251823E-1,1.060942777E0
1.355210025E1,6.567479372E-1,5.201160312E-1,4.815025032E-1,9.662728390E-1
1.356204025E1,3.858968318E-1,5.252234936E-1,5.737095475E-1,8.682849347E-1
1.357198025E1,1.373932958E-1,4.483111799E-1,5.936289430E-1,7.564754812E-1
1.358192125E1,-3.184945881E-2,3.046137691E-1,6.140203476E-1,6.861668336E-1
1.359186125E1,-1.140782833E-1,1.041264758E-1,6.428166032E-1,6.611122167E-1
1.360180225E1,-1.085375175E-1,-1.328473687E-1,6.606845856E-1,6.825928052E-1
1.361174225E1,-4.327702522E-2,-3.834814429E-1,6.525681019E-1,7.581398589E-1
1.362168325E1,6.328459084E-2,-6.162464619E-1,6.230667233E-1,8.786220934E-1
1.363162325E1,2.025245130E-1,-7.760289907E-1,5.625101924E-1,9.796197678E-1
1.364156325E1,3.671011925E-1,-8.624043465E-1,4.925055504E-1,1.058804165E0
1.365150425E1,5.372942090E-1,-8.714183569E-1,4.376654625E-1,1.113375982E0
1.366144425E1,7.014076710E-1,-7.615777254E-1,4.180804789E-1,1.116586154E0
1.367138525E1,8.546203971E-1,-4.926834106E-1,4.015973806E-1,1.065079069E0
1.368132525E1,9.598738551E-1,-8.338964731E-2,4.030642509E-1,1.044400518E0
1.369126625E1,9.555717707E-1,4.545379877E-1,4.042251408E-1,1.132748938E0
1.370120625E1,8.389086723E-1,1.084530115E0,3.490417302E-1,1.414851038E0
1.371114625E1,5.803114176E-1,1.713785052E0,1.781845093E-1,1.818122731E0
1.372108725E1,1.622474939E-1,2.147116184E0,-8.469256759E-2,2.154902547E0
1.373102725E1,-3.494149745E-1,2.337370872E0,-4.111569524E-1,2.398842108E0
1.374096825E1,-7.681887150E-1,2.344147444E0,-7.320141196E-1,2.573127632E0
1.375090825E1,-1.056621909E0,2.205486774E0,-1.004148483E0,2.643659575E0
1.376084925E1,-1.312656283E0,1.946891427E0,-1.175995827E0,2.626103374E0
1.377078925E1,-1.628864050E0,1.685535431E0,-1.252778769E0,2.657758910E0
1.378072925E1,-2.023490429E0,1.416927576E0,-1.177179694E0,2.736411757E0
1.379067025E1,-2.465965033E0,1.006111383E0,-1.009189844E0,2.848106002E0
1.380061025E1,-2.840787888E0,3.405714929E-1,-8.993543983E-1,2.999150396E0
1.381055125E1,-3.064040184E0,-5.401321054E-1,-9.056625962E-1,3.240418133E0
1.382049125E1,-3.157994986E0,-1.478833675E0,-9.966160655E-1,3.626723721E0
1.383043125E1,-3.164438486E0,-2.350625515E0,-1.127759695E0,4.100116239E0
1.384037225E1,-3.115558624E0,-3.040882111E0,-1.280810118E0,4.538077138E0
1.385031225E1,-3.039761782E0,-3.487154722E0,-1.400062680E0,4.833277900E0
1.386025325E1,-2.937738895E0,-3.689557076E0,-1.423781276E0,4.926489049E0
1.387019325E1,-2.806070089E0,-3.629745722E0,-1.315688372E0,4.772852317E0
1.388013425E1,-2.654514313E0,-3.307174921E0,-1.068327069E0,4.373233920E0
1.389007425E1,-2.436209202E0,-2.710913658E0,-7.364298105E-1,3.718399791E0
1.390001425E1,-2.196930647E0,-1.832833052E0,-3.817315102E-1,2.886433822E0
1.390995525E1,-2.007457495E0,-8.235733509E-1,-6.562574953E-2,2.170821364E0
1.391989525E1,-1.831888914E0,3.672105074E-1,1.825912893E-1,1.877232039E0
1.392983625E1,-1.653855324E0,1.870969176E0,2.964672744E-1,2.514688039E0
1.393977625E1,-1.622784734E0,3.535529852E0,1.308513284E-1,3.892367364E0
1.394971725E1,-1.676594496E0,4.792521000E0,-2.192978859E-1,5.082058461E0
1.395965725E1,-1.561672211E0,5.266016006E0,-5.748807192E-1,5.522701560E0
1.396959725E1,-1.255267501E0,4.989906788E0,-7.642421126E-1,5.201820091E0
1.397953825E1,-8.715174794E-1,4.216813087E0,-7.623587251E-1,4.372899056E0
1.398947825E1,-5.163884163E-1,3.255388021E0,-6.705856323E-1,3.363613125E0
1.399941925E1,-2.446405292E-1,2.302952766E0,-5.699543953E-1,2.385013301E0
1.400935925E1,-5.966721848E-2,1.467155695E0,-4.968825579E-1,1.550160729E0
1.401930025E1,5.681446567E-2,7.479957938E-1,-4.590681791E-1,8.794709684E-1
1.402924025E1,1.164197326E-1,1.981002241E-1,-4.549599886E-1,5.096919110E-1
1.403918025E1,1.060545072E-1,-1.278085411E-1,-4.556070864E-1,4.849333963E-1
1.404912125E1,-5.176145583E-3,-3.064435422E-1,-4.654977918E-1,5.573352951E-1
1.405906125E1,-1.698946506E-1,-4.005818665E-1,-4.598596990E-1,6.330884352E-1
1.406900225E1,-3.170121908E-1,-4.191430211E-1,-4.525245428E-1,6.935099589E-1
1.407894225E1,-4.210838974E-1,-3.857928216E-1,-4.308220446E-1,7.153708017E-1
1.408888225E1,-4.503863752E-1,-3.541720510E-1,-4.081492424E-1,7.034710603E-1
1.409882325E1,-4.052591324E-1,-2.535766959E-1,-3.432461321E-1,5.885184894E-1
1.410876312E1,-3.578463495E-1,-2.222147584E-1,-1.868674457E-1,4.608175897E-1
1.411870412E1,-2.497221082E-1,-2.754059434E-1,1.257856563E-2,3.719782054E-1
1.412864412E1,-1.221180782E-1,-4.116492569E-1,1.605224907E-1,4.584052855E-1
1.413858512E1,-6.129825860E-2,-6.299622655E-1,2.655859590E-1,6.864006367E-1
1.414852512E1,-4.818059504E-2,-8.131033182E-1,3.357520103E-1,8.810152032E-1
1.415846513E1,-4.341970384E-2,-8.334757686E-1,3.540011346E-1,9.065781438E-1
1.416840612E1,-2.200096659E-2,-7.185808420E-1,3.056194782E-1,7.811822672E-1
1.417834613E1,2.286543138E-2,-4.807010293E-1,2.386810035E-1,5.371823982E-1
1.418828712E1,7.907117903E-2,-2.278373688E-1,1.564953327E-1,2.874941863E-1
1.419822713E1,1.457341611E-1,-7.086688280E-2,6.246899441E-2,1.736747997E-1
1.420816812E1,2.174285948E-1,3.415619954E-2,-2.962977067E-2,2.220805330E-1
1.421810813E1,3.289041817E-1,8.401168138E-2,-1.264118999E-1,3.622373418E-1
1.422804813E1,4.709359109E-1,2.011445723E-2,-2.139025927E-1,5.176287692E-1
1.423798913E1,6.036700606E-1,-1.759956032E-1,-2.994830608E-1,6.964783544E-1
1.424792913E1,6.606510878E-1,-4.949120581E-1,-3.853710592E-1,9.109932263E-1
1.425787013E1,6.093071699E-1,-8.960022330E-1,-4.516135454E-1,1.173895235E0
1.426781013E1,4.502261877E-1,-1.304032922E0,-4.341242909E-1,1.446260482E0
1.427775113E1,2.366918027E-1,-1.579713702E0,-2.919147015E-1,1.623801892E0
1.428769113E1,1.420945860E-2,-1.652875066E0,-1.524934322E-1,1.659955463E0
1.429763112E1,-1.735551059E-1,-1.556003094E0,-1.123974100E-1,1.569681554E0
1.430757213E1,-2.580146194E-1,-1.327468991E0,-1.621178389E-1,1.361994002E0
1.431751212E1,-2.025516778E-1,-1.015917540E0,-2.359428108E-1,1.062442770E0
1.432745313E1,-4.362940416E-2,-8.207727671E-1,-3.017295599E-1,8.755639254E-1
1.433739312E1,1.739378870E-1,-8.250352144E-1,-3.232795596E-1,9.030211333E-1
1.434733413E1,4.261693358E-1,-9.715934992E-1,-2.755130827E-1,1.096139448E0
1.435727412E1,6.944960356E-1,-1.124615312E0,-1.743310690E-1,1.333220036E0
1.436721412E1,9.327104688E-1,-1.087697506E0,-3.103862144E-2,1.433177616E0
1.437715512E1,1.083662748E0,-7.846050262E-1,1.551174372E-1,1.346844987E0
1.438709512E1,1.112050891E0,-3.346556425E-1,3.694185615E-1,1.218655676E0
1.439703612E1,8.713485599E-1,3.678960800E-1,5.707489848E-1,1.104694638E0
1.440697612E1,1.055496559E-1,1.280163288E0,7.071198821E-1,1.466280090E0
1.441691613E1,-8.052928448E-1,1.452146053E0,5.591871738E-1,1.752117297E0
1.442685712E1,-9.996106625E-1,1.053229332E0,1.872647107E-1,1.464097529E0
1.443679713E1,-6.338055134E-1,3.927317560E-1,-6.209569424E-2,7.482001979E-1
1.444673812E1,-1.109771729E-1,-3.538635969E-1,-6.489334255E-2,3.764923957E-1
1.445667813E1,3.220736384E-1,-8.107144237E-1,7.220639288E-2,8.753302625E-1
1.446661912E1,5.595716834E-1,-9.232740402E-1,2.209937423E-1,1.101995307E0
1.447655913E1,6.939288974E-1,-9.028584957E-1,3.293356299E-1,1.185391385E0
1.448649913E1,8.880395293E-1,-8.310354352E-1,4.230535924E-1,1.287714426E0
1.449644013E1,1.112172484E0,-5.629023314E-1,5.774922371E-1,1.373784537E0
1.450638013E1,1.207046270E0,-3.396898508E-2,7.840089202E-1,1.439716839E0
1.451632113E1,1.128158092E0,5.502442122E-1,1.008242249E0,1.609988139E0
1.452626113E1,9.729113579E-1,9.517314434E-1,1.180885315E0,1.801898826E0
1.453620213E1,8.109835982E-1,1.135973215E0,1.234185934E0,1.863154439E0
1.454614213E1,6.727381349E-1,1.128258348E0,1.191074729E0,1.773189924E0
1.455608212E1,5.991514921E-1,9.290385246E-1,1.153994441E0,1.598060781E0
1.456602313E1,6.028469205E-1,5.897691250E-1,1.140437245E0,1.418396680E0
1.457596312E1,6.928185225E-1,1.661233455E-1,1.208424330E0,1.402812828E0
1.458590413E1,1.172324181E0,-1.828460991E-1,1.377968311E0,1.818398567E0
1.459584412E1,1.786179900E0,-3.564245999E-1,1.450079083E0,2.328133690E0
1.460578513E1,2.154283285E0,-4.030190110E-1,1.315168858E0,2.555979249E0
1.461572512E1,2.152843952E0,-3.425985575E-1,1.021221638E0,2.407281555E0
1.462566513E1,1.881874084E0,-2.924995869E-2,6.860354543E-1,2.003234952E0
1.463560612E1,1.467869163E0,4.661026597E-1,4.170795977E-1,1.595571045E0
1.464554613E1,9.969140291E-1,8.002536893E-1,2.179454416E-1,1.296820637E0
1.465548712E1,6.136019230E-1,9.360211492E-1,1.125134379E-1,1.124856518E0
1.466542713E1,5.309342146E-1,1.016985536E0,1.516102403E-1,1.157210605E0
1.467536713E1,7.104902864E-1,9.359351397E-1,2.852076888E-1,1.209179250E0
1.468530813E1,9.448090792E-1,6.286393404E-1,4.017622769E-1,1.203854037E0
1.469524813E1,1.108746767E0,2.580702305E-1,3.987315893E-1,1.206195058E0
1.470518913E1,1.194207311E0,1.706189103E-2,2.596927285E-1,1.222236688E0
1.471512913E1,1.193307638E0,-1.633386612E-1,8.089412004E-2,1.207148084E0
1.472507013E1,1.125612736E0,-3.089028001E-1,-4.659246653E-2,1.168159162E0
1.473501013E1,1.007383108E0,-4.140491188E-1,-9.360480309E-2,1.093169364E0
1.474495012E1,8.303627372E-1,-5.280507803E-1,-6.841689348E-2,9.864181533E-1
1.475489113E1,6.283798218E-1,-6.894978285E-1,-2.997661009E-2,9.333633017E-1
1.476483112E1,4.439602494E-1,-8.479362130E-1,1.597029157E-3,9.571306467E-1
1.477477213E1,3.006134331E-1,-9.471593499E-1,2.521063015E-2,9.940396603E-1
1.478471212E1,1.906984001E-1,-1.023725748E0,4.738171399E-2,1.042413216E0
1.479465313E1,1.420883834E-1,-1.081964970E0,8.182322979E-2,1.094318210E0
1.480459312E1,1.941915303E-1,-1.043421030E0,1.164887995E-1,1.067711308E0
1.481453312E1,3.180848956E-1,-9.213588238E-1,1.515202075E-1,9.864271165E-1
1.482447412E1,4.452380538E-1,-8.110831976E-1,1.410899460E-1,9.359483163E-1
1.483441412E1,5.185652375E-1,-7.790500522E-1,1.076602861E-1,9.420295253E-1
1.484435512E1,5.723789334E-1,-7.655057907E-1,5.587565154E-2,9.574648022E-1
1.485429512E1,6.224376559E-1,-7.045018077E-1,-2.852873411E-3,9.400848746E-1
1.486423612E1,6.556419730E-1,-5.725570917E-1,-5.596269667E-2,8.722498744E-1
1.487417612E1,6.595252156E-1,-3.888201118E-1,-8.916956931E-2,7.707825903E-1
1.488411613E1,6.476001143E-1,-2.342441380E-1,-1.119984537E-1,6.977104542E-1
1.489405712E1,6.676879525E-1,-5.677912012E-2,-9.997718781E-2,6.775149508E-1
1.490399713E1,7.775124907E-1,1.676060557E-1,-7.422415167E-2,7.988283219E-1
1.491393812E1,9.526298642E-1,4.595980346E-1,-4.336006567E-2,1.058590623E0
1.492387813E1,1.178257585E0,8.326989412E-1,-3.225841373E-2,1.443162869E0
1.493381813E1,1.374981523E0,1.155584455E0,-4.545167089E-2,1.796667881E0
1.494375913E1,1.494011760E0,1.300788164E0,-6.626214087E-2,1.982047340E0
1.495369913E1,1.598285079E0,1.276092529E0,-9.547016025E-2,2.047447652E0
1.496364013E1,1.710847020E0,1.079126120E0,-9.182243049E-2,2.024831368E0
1.497358013E1,1.808166027E0,7.396416068E-1,-5.440310389E-2,1.954352523E0
1.498352113E1,1.817136645E0,3.438298404E-1,4.762747325E-3,1.849385636E0
1.499346113E1,1.708266020E0,-5.353914946E-2,5.782951787E-2,1.710082889E0
1.500340112E1,1.533695340E0,-3.838067949E-1,1.479146779E-1,1.587894141E0
1.501334213E1,1.361946583E0,-5.305312872E-1,3.446018696E-1,1.501703163E0
1.502328212E1,1.154852867E0,-4.508132935E-1,5.155688524E-1,1.342657444E0
1.503322313E1,8.073459268E-1,-1.626734287E-1,5.650488734E-1,9.987744086E-1
1.504316312E1,3.185355067E-1,1.911746562E-1,5.133447051E-1,6.336682132E-1
1.505310413E1,-1.838959157E-1,4.398818612E-1,4.428963363E-1,6.507464363E-1
1.506304412E1,-5.301257372E-1,4.815984070E-1,4.135749340E-1,8.270517208E-1
1.507298412E1,-7.146434784E-1,2.811400294E-1,4.330185652E-1,8.816235564E-1
1.508292512E1,-8.599570394E-1,-1.530106068E-1,4.331408143E-1,9.749611891E-1
1.509286512E1,-9.370481372E-1,-7.254935503E-1,3.821607828E-1,1.245169453E0
1.510280612E1,-8.740143180E-1,-1.309126496E0,2.683524489E-1,1.596786225E0
1.511274587E1,-6.862824559E-1,-1.812883854E0,1.043231562E-1,1.941240531E0
1.512268588E1,-4.801543653E-1,-2.184614182E0,-9.448102117E-2,2.238752778E0
1.513262687E1,-3.260391653E-1,-2.294315100E0,-2.684609592E-1,2.332864034E0
1.514256688E1,-3.246996105E-1,-1.984470725E0,-3.722707033E-1,2.045027964E0
1.515250787E1,-6.512716413E-1,-1.212894440E0,-4.723429084E-1,1.455464014E0
1.516244788E1,-1.238244534E0,-2.963744998E-1,-5.915350318E-1,1.403923453E0
1.517238887E1,-1.874252915E0,4.058467746E-1,-6.645171642E-1,2.029561198E0
1.518232888E1,-2.450038671E0,8.211577535E-1,-7.386180162E-1,2.687479511E0
1.519226888E1,-2.928714752E0,1.090251565E0,-8.380482197E-1,3.235481941E0
1.520220988E1,-3.294037342E0,1.285488009E0,-9.379596114E-1,3.658268671E0
1.521214988E1,-3.530337572E0,1.410188437E0,-1.029595375E0,3.938525287E0
1.522209088E1,-3.614629507E0,1.434011221E0,-1.133179069E0,4.050435712E0
1.523203088E1,-3.552895069E0,1.264564037E0,-1.270367980E0,3.979449759E0
1.524197188E1,-3.374407768E0,9.456763268E-1,-1.416236162E0,3.779769354E0
1.525191188E1,-3.102684498E0,5.814008117E-1,-1.512391567E0,3.500286595E0
1.526185187E1,-2.782494068E0,3.042118549E-1,-1.494887114E0,3.173248426E0
1.527179288E1,-2.454856396E0,2.234565765E-1,-1.338381171E0,2.804909433E0
1.528173287E1,-2.132908106E0,3.442394733E-1,-1.082632780E0,2.416586754E0
1.529167388E1,-1.875877500E0,5.420991778E-1,-8.041933775E-1,2.111756354E0
1.530161387E1,-1.682405710E0,8.003081083E-1,-5.458550453E-1,1.941375742E0
1.531155387E1,-1.520385742E0,1.132994533E0,-3.271755874E-1,1.924134424E0
1.532149487E1,-1.366143703E0,1.233529091E0,-1.601274610E-1,1.847588547E0
1.533143487E1,-1.446105719E0,6.822260618E-1,-1.410859972E-1,1.605166473E0
1.534137587E1,-1.748038650E0,7.268711925E-4,-2.739748061E-1,1.769378943E0
1.535131587E1,-1.999342322E0,-4.128549099E-1,-3.740598559E-1,2.075509498E0
1.536125687E1,-2.086943388E0,-5.443149209E-1,-3.525907695E-1,2.185390512E0
1.537119687E1,-1.963755727E0,-4.141198099E-1,-2.785858512E-1,2.026188996E0
1.538113688E1,-1.703421831E0,-1.884981543E-1,-2.138382941E-1,1.727108655E0
1.539107787E1,-1.367695928E0,5.312711000E-2,-1.888478994E-1,1.381693949E0
1.540101788E1,-1.024560928E0,3.000705838E-1,-1.967417747E-1,1.085575781E0
1.541095887E1,-7.109360695E-1,4.943581223E-1,-2.255052030E-1,8.948031318E-1
1.542089888E1,-4.343092740E-1,6.262322664E-1,-2.507290542E-1,8.022820300E-1
1.543083987E1,-1.657947898E-1,7.553018332E-1,-3.268613219E-1,8.395279002E-1
1.544077988E1,9.201572090E-2,9.848556519E-1,-4.742276073E-1,1.096950031E0
1.545071988E1,3.557564914E-1,1.227384090E0,-6.493994594E-1,1.433441329E0
1.546066088E1,5.964369774E-1,1.289021850E0,-8.077547550E-1,1.633946799E0
1.547060088E1,6.960340142E-1,9.675112963E-1,-9.418742061E-1,1.519101207E0
1.548054188E1,5.998103023E-1,3.718825579E-1,-9.888590574E-1,1.214870887E0
1.549048188E1,4.160616994E-1,-1.874245107E-1,-9.259344935E-1,1.032274174E0
1.550042187E1,1.718133241E-1,-6.398527026E-1,-7.734906077E-1,1.018439502E0
1.551036288E1,-8.888734877E-2,-1.026618004E0,-5.736088753E-1,1.179352631E0
1.552030287E1,-3.113174736E-1,-1.375256658E0,-3.610947430E-1,1.455554484E0
1.553024388E1,-4.339372814E-1,-1.593022227E0,-2.072925866E-1,1.664028725E0
1.554018387E1,-4.584181309E-1,-1.631977916E0,-6.761112064E-2,1.696487655E0
1.555012488E1,-4.293387234E-1,-1.576889157E0,6.345367432E-2,1.635523623E0
1.556006487E1,-3.359059691E-1,-1.446482778E0,1.411841512E-1,1.491669605E0
1.557000488E1,-2.017751038E-1,-1.279418707E0,1.888730824E-1,1.308930274E0
1.557994587E1,-4.607340321E-2,-1.126676798E0,1.905910820E-1,1.143611965E0
1.558988588E1,1.461120248E-1,-9.317424893E-1,1.497911811E-1,9.549503590E-1
1.559982687E1,3.765617311E-1,-6.778241992E-1,7.884563506E-2,7.793978551E-1
1.560976688E1,6.286541820E-1,-4.088709950E-1,2.497076988E-3,7.499252006E-1
1.561970787E1,8.524537086E-1,-2.270857543E-1,-1.490721386E-2,8.823080472E-1
1.562964788E1,9.821825624E-1,-1.511701345E-1,3.510729223E-2,9.943678984E-1
1.563958788E1,9.992672205E-1,-1.777484864E-1,7.139711827E-2,1.017461081E0
1.564952888E1,9.215841889E-1,-2.269527018E-1,8.341538161E-2,9.527765069E-1
1.565946888E1,7.624621391E-1,-2.978844047E-1,8.688068390E-2,8.231839924E-1
1.566940988E1,5.297911167E-1,-4.162657261E-1,7.778871059E-2,6.782380597E-1
1.567934988E1,2.950688601E-1,-5.935789943E-1,3.065182269E-2,6.635820890E-1
1.568929088E1,9.711709619E-2,-7.592471838E-1,-6.431424618E-2,7.681304178E-1
1.569923088E1,1.407706644E-2,-9.431070089E-1,-1.886045188E-1,9.618839112E-1
1.570917087E1,3.878574446E-2,-1.192268729E0,-2.966101468E-1,1.229221964E0
1.571911188E1,1.212992594E-1,-1.472246766E0,-3.644714952E-1,1.521533280E0
1.572905187E1,1.802684963E-1,-1.675328374E0,-3.468298018E-1,1.720323459E0
1.573899288E1,2.217834443E-1,-1.752548099E0,-2.687440515E-1,1.786850889E0
1.574893287E1,2.988700271E-1,-1.681555986E0,-2.068517059E-1,1.720389914E0
1.575887287E1,4.429579675E-1,-1.427908540E0,-1.836110950E-1,1.506269429E0
1.576881387E1,6.249152422E-1,-1.053408146E0,-1.307731867E-1,1.231783020E0
1.577875387E1,7.602124810E-1,-6.601301432E-1,1.393597852E-2,1.006920570E0
1.578869487E1,8.146801591E-1,-2.810852528E-1,2.698840499E-1,9.030781147E-1
1.579863487E1,7.199411392E-1,9.388996661E-2,5.751851201E-1,9.262658863E-1
1.580857587E1,2.830179036E-1,5.143185258E-1,8.495075107E-1,1.032611103E0
1.581851587E1,-4.541474879E-1,6.697310209E-1,9.072975516E-1,1.215721361E0
1.582845588E1,-1.040510893E0,5.659685731E-1,5.384417772E-1,1.301116018E0
1.583839687E1,-1.059061766E0,3.128023446E-1,1.401898731E-2,1.104379311E0
1.584833688E1,-6.396127939E-1,-1.986035611E-3,-2.066045702E-1,6.721561715E-1
1.585827787E1,-9.404183179E-2,-3.001516759E-1,-1.062513441E-1,3.320003657E-1
1.586821788E1,3.638114333E-1,-5.926684737E-1,1.013442650E-1,7.027697623E-1
1.587815887E1,7.948157787E-1,-7.792099118E-1,2.952860296E-1,1.151561569E0
1.588809888E1,1.219564080E0,-8.673494458E-1,4.034307599E-1,1.549963866E0
1.589803888E1,1.476508737E0,-8.377625346E-1,4.469412267E-1,1.755471610E0
