"Time (s)","Gyroscope x (rad/s)","Gyroscope y (rad/s)","Gyroscope z (rad/s)","Absolute (rad/s)"
6.556291672E-3,-4.244714677E-1,-2.418769598E-1,1.527189314E-1,5.118628357E-1
1.649729167E-2,-5.654392242E-1,-3.362751007E-1,1.619087011E-1,6.775078502E-1
2.643829166E-2,-5.685617924E-1,-4.176996648E-1,1.234254912E-1,7.162188029E-1
3.637929166E-2,-5.003122091E-1,-5.097482204E-1,8.410754055E-2,7.191867860E-1
4.632029167E-2,-3.647238016E-1,-3.685229421E-1,8.183266968E-2,5.249087503E-1
5.626129167E-2,-2.346868813E-1,-2.048650384E-1,7.933068275E-2,3.214669088E-1
6.620229167E-2,-1.483863443E-1,-6.668266654E-2,5.226790532E-2,1.708713526E-1
7.614329166E-2,-1.042179912E-1,2.019990981E-2,3.171453252E-2,1.107936714E-1
8.608429166E-2,-8.563418686E-2,6.274311244E-2,2.491841093E-2,1.090451252E-1
9.602529167E-2,-7.377984375E-2,5.209017918E-2,1.449618675E-2,9.147126073E-2
1.059652917E-1,-6.211227551E-2,1.940680295E-2,-5.810150877E-3,6.533235510E-2
1.159062917E-1,-5.554404110E-2,-2.857832052E-2,-1.899167709E-2,6.528816664E-2
1.258472917E-1,-7.754334807E-2,-8.993808180E-2,-2.908558957E-2,1.222611995E-1
1.357882917E-1,-1.130319536E-1,-1.439676881E-1,-3.159875423E-2,1.857455222E-1
1.457292917E-1,-1.666674763E-1,-2.041783035E-1,-3.167385608E-2,2.654619755E-1
1.556702917E-1,-2.055449635E-1,-2.694252431E-1,-2.620448358E-2,3.398902302E-1
1.656112917E-1,-1.931655258E-1,-2.935864925E-1,-3.595831245E-2,3.532689474E-1
1.755522917E-1,-1.479295343E-1,-2.879041135E-1,-4.613925144E-2,3.269568110E-1
1.854932917E-1,-1.036960110E-1,-2.463590801E-1,-4.778215662E-2,2.715304652E-1
1.954342917E-1,-6.920515001E-2,-2.013199627E-1,-4.787722975E-2,2.182001588E-1
2.053752917E-1,-4.213172197E-2,-1.449067593E-1,-5.356733873E-2,1.601327907E-1
2.153162917E-1,-3.098388761E-2,-9.962517768E-2,-6.303177774E-2,1.218941439E-1
2.252562917E-1,-4.618468136E-2,-8.888811618E-2,-6.524671614E-2,1.195460412E-1
2.351972917E-1,-5.833112076E-2,-8.231610060E-2,-6.212722138E-2,1.184831283E-1
2.451382917E-1,-6.032263115E-2,-1.188458800E-1,-4.435328022E-2,1.404648586E-1
2.550792917E-1,-6.141800433E-2,-1.963112801E-1,-2.488935366E-2,2.071950045E-1
2.650202917E-1,-5.443279818E-2,-3.140070140E-1,2.558127791E-2,3.197150859E-1
2.749612917E-1,-3.843424469E-2,-4.214013219E-1,3.963910043E-2,4.250029689E-1
2.849022917E-1,-2.026961930E-2,-4.820364416E-1,3.417562693E-2,4.836713367E-1
2.948432917E-1,-1.011506561E-2,-5.423197150E-1,4.710468650E-2,5.444555440E-1
3.047842917E-1,-4.299232364E-2,-5.796614885E-1,4.330169410E-2,5.828643220E-1
3.147252917E-1,-1.305548549E-1,-6.137900949E-1,1.249611378E-2,6.276456034E-1
3.246662917E-1,-2.562462091E-1,-6.273103952E-1,-3.449669480E-2,6.785060601E-1
3.346072917E-1,-4.000708759E-1,-6.310720444E-1,-8.224505186E-2,7.517132961E-1
3.445472917E-1,-5.452219844E-1,-6.031647921E-1,-1.273518056E-1,8.229782871E-1
3.544882917E-1,-6.782122254E-1,-5.914562941E-1,-1.751243323E-1,9.167665473E-1
3.644292917E-1,-7.682721019E-1,-6.384121180E-1,-2.134450823E-1,1.021455265E0
3.743702917E-1,-7.988829017E-1,-6.832377911E-1,-2.319170386E-1,1.076481901E0
3.843112917E-1,-7.865221500E-1,-7.507572174E-1,-2.153577805E-1,1.108436947E0
3.942522917E-1,-7.578030229E-1,-7.842314839E-1,-1.816835552E-1,1.105573768E0
4.041932917E-1,-7.106909156E-1,-8.146333098E-1,-1.332094967E-1,1.089244590E0
4.141342917E-1,-6.444643736E-1,-8.500543833E-1,-8.110575378E-2,1.069815370E0
4.240752917E-1,-5.464571118E-1,-8.469592333E-1,-2.161365934E-2,1.008177796E0
4.340162917E-1,-4.295744598E-1,-8.109564781E-1,2.103148215E-2,9.179471385E-1
4.439572917E-1,-3.242445886E-1,-7.653418183E-1,3.233953193E-2,8.318223954E-1
4.538982917E-1,-2.293512821E-1,-7.562897801E-1,1.082683913E-2,7.903755200E-1
4.638382917E-1,-1.425545961E-1,-8.286465406E-1,-1.621862687E-2,8.409755918E-1
4.737792917E-1,-7.844569534E-2,-9.458571076E-1,-3.237619624E-2,9.496565765E-1
4.837202917E-1,-2.389004268E-2,-1.055748701E0,-5.103217438E-2,1.057251312E0
4.936612917E-1,-3.296550736E-2,-1.125548959E0,-2.609091625E-2,1.126333840E0
5.036022917E-1,-1.037603170E-1,-1.105966687E0,-4.111141339E-2,1.111583854E0
5.135432917E-1,-1.846665442E-1,-1.015597105E0,-2.727942914E-2,1.032609984E0
5.234842917E-1,-2.576078475E-1,-9.498143792E-1,-4.268022254E-2,9.850536835E-1
5.334252917E-1,-2.764507830E-1,-9.207780957E-1,-4.283943027E-2,9.623370271E-1
5.433662917E-1,-2.616822124E-1,-8.917788863E-1,-3.351250663E-2,9.299840055E-1
5.533072917E-1,-2.390189618E-1,-8.471462727E-1,-3.225784004E-2,8.808106718E-1
5.632482917E-1,-2.253644019E-1,-7.629674673E-1,-2.290668525E-2,7.958851588E-1
5.731892917E-1,-2.433827966E-1,-6.429336071E-1,5.045710597E-3,6.874767400E-1
5.831292917E-1,-2.400826067E-1,-5.279220939E-1,2.900510654E-2,5.806743420E-1
5.930702917E-1,-1.922032982E-1,-4.414060712E-1,9.439444542E-2,4.906034436E-1
6.030112917E-1,-1.153588668E-1,-3.838942945E-1,1.610166132E-1,4.319824617E-1
6.129522917E-1,-4.633078352E-2,-3.449531496E-1,1.900917292E-1,3.965779651E-1
6.228932917E-1,5.523894913E-3,-2.838650346E-1,1.600217074E-1,3.259092176E-1
6.328342917E-1,3.860567883E-2,-2.215782106E-1,9.922173619E-2,2.458297272E-1
6.427752917E-1,4.889347032E-2,-2.073236406E-1,7.576061785E-2,2.260825836E-1
6.527162917E-1,3.380447999E-2,-2.824054360E-1,8.337467164E-2,2.963897924E-1
6.626572917E-1,2.114195004E-2,-3.365821242E-1,9.636317194E-2,3.507425969E-1
6.725982917E-1,-8.157895878E-3,-3.566887081E-1,1.133857593E-1,3.743657518E-1
6.825392917E-1,-3.375114128E-2,-4.519555867E-1,9.925129265E-2,4.639545354E-1
6.924792917E-1,-6.174727529E-2,-4.532123506E-1,9.041604400E-2,4.662501708E-1
7.024202917E-1,-8.226906508E-2,-3.047786653E-1,7.067775726E-2,3.235020545E-1
7.123612917E-1,-9.621758014E-2,-2.116661072E-1,7.694306970E-2,2.449093702E-1
7.223022917E-1,-1.279352903E-1,-1.911275536E-1,7.970689237E-2,2.434139867E-1
7.322432917E-1,-1.385756582E-1,-1.889251471E-1,6.703492999E-2,2.436998278E-1
7.421842917E-1,-1.202821285E-1,-1.949329823E-1,4.105339572E-2,2.327059074E-1
7.521252917E-1,-9.016980976E-2,-2.458254099E-1,5.311310664E-2,2.671735931E-1
7.620662917E-1,-8.059654385E-2,-2.994883657E-1,4.418832064E-2,3.132757439E-1
7.720072917E-1,-5.442846939E-2,-4.417502284E-1,-1.343545765E-1,4.649267413E-1
7.819482917E-1,1.870379969E-2,-4.773282111E-1,-2.257356346E-1,5.283451807E-1
7.918892917E-1,1.062747240E-1,-5.455923676E-1,-2.284262180E-1,6.009524821E-1
8.018302917E-1,1.647084802E-1,-6.045281291E-1,-2.285836190E-1,6.669584794E-1
8.117702917E-1,1.970816553E-1,-6.315410137E-1,-2.337078005E-1,7.016441882E-1
8.217111667E-1,2.090810686E-1,-6.571071148E-1,-2.420035452E-1,7.308011833E-1
8.316521667E-1,2.013361454E-1,-6.670266986E-1,-2.379168868E-1,7.362508439E-1
8.415931667E-1,1.879633516E-1,-6.238432527E-1,-2.359341681E-1,6.929470089E-1
8.515341667E-1,1.387867630E-1,-4.690662324E-1,-1.665406376E-1,5.167404377E-1
8.614751667E-1,4.389912635E-2,-2.687139511E-1,-2.367482707E-2,2.733035277E-1
8.714161667E-1,-6.255777925E-2,-7.560517639E-2,8.004527539E-2,1.266367425E-1
8.813571667E-1,-1.530168355E-1,-3.488916904E-2,1.050366461E-1,1.888494191E-1
8.912981667E-1,-1.976368278E-1,-1.135843545E-1,5.227416754E-2,2.338681464E-1
9.012391667E-1,-2.199802101E-1,-3.118045032E-1,-1.035699062E-2,3.817336877E-1
9.111801667E-1,-2.142454237E-1,-5.353043675E-1,5.195090175E-2,5.789220705E-1
9.211201667E-1,-2.085617036E-1,-7.881461978E-1,1.264230013E-1,8.250182959E-1
9.310611667E-1,-1.967988759E-1,-9.512825608E-1,1.658065021E-1,9.854745579E-1
9.410021667E-1,-1.553158760E-1,-1.091473222E0,2.210106403E-1,1.124403183E0
9.509431667E-1,-8.898158371E-2,-1.151931643E0,2.593940496E-1,1.184123941E0
9.608841667E-1,-3.011453897E-2,-1.089278340E0,2.947368622E-1,1.128850746E0
9.708251667E-1,1.695358381E-2,-9.359416962E-1,3.320467174E-1,9.932418161E-1
9.807661667E-1,4.056916386E-2,-7.021204233E-1,3.340632617E-1,7.785995176E-1
9.907071667E-1,-5.716736428E-3,-4.450166225E-1,3.123403192E-1,5.437177120E-1
1.000648167E0,-6.627808511E-2,-2.554730475E-1,2.555148602E-1,3.673514752E-1
1.010589167E0,-1.130012199E-1,-1.293393672E-1,1.816242337E-1,2.499706180E-1
1.020530167E0,-1.451386511E-1,-1.262604892E-1,1.350247711E-1,2.350289940E-1
1.030471167E0,-1.524266899E-1,-3.079468012E-1,1.012949049E-1,3.582258867E-1
1.040411167E0,-1.116257235E-1,-5.448219180E-1,9.165213257E-2,5.636411428E-1
1.050352167E0,-4.563403130E-2,-7.396095395E-1,1.214543432E-1,7.509033847E-1
1.060293167E0,3.945236653E-2,-8.031437993E-1,1.770166755E-1,8.233658695E-1
1.070234167E0,1.267778724E-1,-7.576434016E-1,2.538158000E-1,8.090232464E-1
1.080175167E0,1.802831739E-1,-6.332554221E-1,3.150895238E-1,7.299286680E-1
1.090116167E0,2.021834254E-1,-4.464984238E-1,3.516827524E-1,6.032576053E-1
1.100057167E0,1.971266121E-1,-2.258403450E-1,3.618392646E-1,4.698834069E-1
1.109998167E0,1.678862721E-1,-5.357159302E-2,3.723269403E-1,4.119260448E-1
1.119939167E0,1.427761316E-1,3.437397256E-2,3.345233500E-1,3.653388365E-1
1.129880167E0,1.212833449E-1,-1.278184801E-1,4.382311106E-1,4.723279792E-1
1.139821167E0,6.154357642E-2,-7.538429648E-2,3.938305974E-1,4.056759093E-1
1.149761167E0,1.278850529E-2,-6.191821396E-2,2.337999642E-1,2.421979239E-1
1.159702167E0,3.056217544E-2,-2.125370204E-1,1.597209424E-1,2.676131743E-1
1.169643167E0,6.182522327E-2,-4.199368954E-1,1.331596226E-1,4.448604718E-1
1.179584167E0,8.830530196E-2,-5.156698227E-1,1.433496773E-1,5.424595122E-1
1.189525167E0,1.032873690E-1,-5.220566392E-1,1.932780296E-1,5.661870820E-1
1.199466167E0,1.392688006E-1,-4.719193876E-1,2.834068835E-1,5.678231845E-1
1.209407167E0,1.910358369E-1,-2.756245136E-1,3.235054314E-1,4.659606503E-1
1.219348167E0,2.036935687E-1,-6.713893265E-2,3.554686904E-1,4.151586396E-1
1.229289167E0,1.922672838E-1,3.496666253E-2,3.779154122E-1,4.254520357E-1
1.239230167E0,1.784750372E-1,9.629153460E-2,3.835328221E-1,4.338465445E-1
1.249171167E0,1.638035774E-1,1.548213810E-1,3.629701436E-1,4.272570621E-1
1.259111167E0,1.230468154E-1,2.501713336E-1,3.422582150E-1,4.414373122E-1
1.269052167E0,7.241845131E-2,3.302273154E-1,3.235765994E-1,4.679704345E-1
1.278993167E0,2.116751485E-2,4.052554965E-1,3.045871854E-1,5.073986940E-1
1.288934167E0,-4.400392249E-2,4.921499491E-1,2.924273908E-1,5.741617337E-1
1.298875167E0,-1.103904024E-1,6.032570004E-1,3.042848408E-1,6.846125283E-1
1.308816167E0,-1.866006702E-1,6.830301285E-1,3.149753213E-1,7.749576889E-1
1.318757167E0,-3.167219460E-1,7.651148438E-1,2.995287478E-1,8.805855927E-1
1.328698167E0,-4.261110127E-1,8.199975491E-1,3.613092899E-1,9.922252661E-1
1.338639167E0,-4.280228913E-1,9.845241904E-1,3.674012721E-1,1.134669631E0
1.348580167E0,-4.316861331E-1,1.070678711E0,3.507698178E-1,1.206542699E0
1.358521167E0,-4.421765804E-1,1.153573275E0,3.390116990E-1,1.281085618E0
1.368461167E0,-4.747262299E-1,1.262871981E0,3.633492589E-1,1.397223431E0
1.378402167E0,-5.315021276E-1,1.548502564E0,3.582647443E-1,1.675920144E0
1.388343167E0,-5.813350677E-1,1.738899350E0,3.007009029E-1,1.857994199E0
1.398284167E0,-5.902308226E-1,1.728853464E0,2.165151983E-1,1.839615600E0
1.408225167E0,-5.650700927E-1,1.633664846E0,1.787994057E-1,1.737853350E0
1.418166167E0,-4.640111029E-1,1.611935019E0,9.639215469E-2,1.680158403E0
1.428107167E0,-4.233313799E-1,1.444929481E0,3.664785624E-2,1.506112123E0
1.438048167E0,-2.816773057E-1,1.167385697E0,1.353055425E-2,1.200964007E0
1.447989167E0,-5.092758685E-2,9.495154619E-1,-1.848643646E-2,9.510599244E-1
1.457930167E0,2.142486870E-1,8.873565197E-1,-3.646517172E-2,9.135829474E-1
1.467870167E0,3.891704679E-1,6.064514518E-1,-2.825444750E-2,7.211347518E-1
1.477811167E0,4.654612541E-1,5.280437469E-1,2.140152082E-2,7.042317821E-1
1.487752167E0,4.055984020E-1,3.899536133E-1,4.590531066E-2,5.645185398E-1
1.497693167E0,2.867814600E-1,3.161142766E-1,7.932212204E-2,4.341242227E-1
1.507634167E0,2.093850672E-1,2.258605361E-1,1.117458045E-1,3.276312149E-1
1.517575167E0,1.909277737E-1,1.400308460E-1,1.315567940E-1,2.708675740E-1
1.527516167E0,2.010355294E-1,5.436585099E-2,1.600978374E-1,2.626827885E-1
1.537457167E0,2.067472041E-1,-4.288187250E-2,2.028889805E-1,2.928262280E-1
1.547398167E0,2.055939585E-1,-1.621551514E-1,2.506665289E-1,3.624870723E-1
1.557339167E0,2.429202944E-1,-3.033852577E-1,2.733337581E-1,4.751465325E-1
1.567279167E0,3.414000571E-1,-3.623805344E-1,2.707901001E-1,5.667459122E-1
1.577220167E0,4.100406468E-1,-3.428315818E-1,2.561155558E-1,5.926736061E-1
1.587161167E0,4.736739695E-1,-4.196171761E-1,1.953064203E-1,6.622614300E-1
1.597102167E0,5.640219450E-1,-3.643808067E-1,1.310811043E-1,6.841610794E-1
1.607043167E0,5.318397284E-1,-3.828993440E-1,8.810641617E-2,6.612322926E-1
1.616984167E0,4.279407859E-1,-4.851229191E-1,5.344164744E-2,6.491021280E-1
1.626925167E0,3.368118405E-1,-5.911211967E-1,9.656826034E-3,6.804114487E-1
1.636866167E0,2.618686259E-1,-7.018399835E-1,-2.942106687E-2,7.496800243E-1
1.646807167E0,1.972686499E-1,-8.389748931E-1,-4.853883013E-2,8.632206030E-1
1.656748167E0,1.730312258E-1,-1.013584495E0,-7.012853771E-2,1.030636378E0
1.666689167E0,2.012918144E-1,-1.161598444E0,-1.008508280E-1,1.183216053E0
1.676629167E0,2.439127713E-1,-1.272011518E0,-1.206402406E-1,1.300792378E0
1.686570167E0,3.043874800E-1,-1.339647055E0,-1.318608373E-1,1.380106246E0
1.696511167E0,3.752086461E-1,-1.317834735E0,-1.515652984E-1,1.378565180E0
1.706452167E0,4.338497519E-1,-1.225393891E0,-1.784271002E-1,1.312117383E0
1.716393167E0,4.355954528E-1,-1.114563704E0,-2.198003829E-1,1.216679028E0
1.726334167E0,4.027154446E-1,-9.900444746E-1,-2.843315005E-1,1.105989237E0
1.736275167E0,3.207396269E-1,-8.565875888E-1,-3.667608500E-1,9.854591451E-1
1.746216167E0,1.917405576E-1,-7.287362218E-1,-4.382219911E-1,8.716991659E-1
1.756157167E0,6.602764875E-2,-6.524148583E-1,-5.147439241E-1,8.336462710E-1
1.766098167E0,-9.151550941E-3,-5.678294301E-1,-5.974231958E-1,8.242745219E-1
1.776038167E0,-6.912727654E-2,-4.316297770E-1,-6.683759093E-1,7.986295768E-1
1.785979167E0,-1.249002069E-1,-3.151303828E-1,-6.856865287E-1,7.649008011E-1
1.795920167E0,-1.632151157E-1,-2.727714777E-1,-6.138064265E-1,6.912320756E-1
1.805861167E0,-1.919667572E-1,-2.110531181E-1,-4.940144420E-1,5.704778027E-1
1.815802167E0,-2.064865828E-1,-1.183940321E-1,-3.723929524E-1,4.419619517E-1
1.825743042E0,-1.989194900E-1,-5.929249898E-2,-2.589474916E-1,3.318710101E-1
1.835684042E0,-1.529115289E-1,-1.139980927E-2,-1.737625301E-1,2.317440575E-1
1.845625042E0,-9.323994070E-2,1.045835018E-2,-1.072767228E-1,1.425179248E-1
1.855566042E0,-4.257276654E-2,-2.316432260E-2,-5.419938266E-2,7.270900476E-2
1.865507042E0,1.420636312E-3,-7.455080003E-2,-1.243519410E-2,7.559414028E-2
1.875447042E0,3.214099631E-2,-1.402704269E-1,1.856932603E-2,1.450987807E-1
1.885388042E0,5.275336280E-2,-2.065814883E-1,3.498221934E-2,2.160615288E-1
1.895329042E0,6.142328307E-2,-2.325851321E-1,4.487772658E-2,2.447093658E-1
1.905270042E0,4.585894197E-2,-2.469513267E-1,5.949226022E-2,2.581227021E-1
1.915211042E0,6.580777001E-3,-2.626743615E-1,8.500214666E-2,2.761638856E-1
1.925152042E0,-2.540380321E-2,-2.770907581E-1,1.097226292E-1,2.991048258E-1
1.935093042E0,-4.630376026E-2,-2.621631920E-1,1.305448115E-1,2.965055232E-1
1.945034042E0,-6.939020008E-2,-2.554081380E-1,1.430277526E-1,3.008409129E-1
1.954975042E0,-9.457251430E-2,-2.378430068E-1,1.420522481E-1,2.927321260E-1
1.964916042E0,-1.115246490E-1,-2.078240514E-1,1.401087791E-1,2.743338361E-1
1.974856042E0,-1.209434494E-1,-1.695219427E-1,1.211246997E-1,2.409070358E-1
1.984797042E0,-1.393953264E-1,-1.542862058E-1,1.037756130E-1,2.323890448E-1
1.994738042E0,-1.626098305E-1,-1.661865413E-1,7.479163259E-2,2.442410936E-1
2.004679042E0,-1.816175729E-1,-1.812683493E-1,4.529114440E-2,2.605656251E-1
2.014620042E0,-2.040310055E-1,-1.798739135E-1,2.307266183E-2,2.729755002E-1
2.024561042E0,-2.178653628E-1,-1.892484576E-1,1.923915930E-2,2.892238583E-1
2.034502042E0,-2.034166455E-1,-2.317157537E-1,7.363059558E-3,3.084229836E-1
2.044443042E0,-1.767982394E-1,-2.366431206E-1,-3.262453945E-3,2.954119625E-1
2.054384042E0,-1.576849967E-1,-2.244817913E-1,-3.532498376E-3,2.743521666E-1
2.064325042E0,-1.457593143E-1,-2.012939602E-1,-2.159018256E-2,2.494617648E-1
2.074265042E0,-1.476983577E-1,-1.831437200E-1,-4.857492819E-2,2.402414425E-1
2.084206042E0,-1.475799531E-1,-1.718026996E-1,-8.218071610E-2,2.409350125E-1
2.094147042E0,-1.456840485E-1,-1.434285790E-1,-1.080024615E-1,2.312144696E-1
2.104088042E0,-1.479533315E-1,-1.081041470E-1,-1.193366051E-1,2.186730898E-1
2.114029042E0,-1.515832245E-1,-8.469442278E-2,-1.244259104E-1,2.136174768E-1
2.123970042E0,-1.430941373E-1,-8.413569629E-2,-1.227214858E-1,2.064347611E-1
2.133911042E0,-1.273372769E-1,-9.342506528E-2,-1.217052191E-1,1.993870239E-1
2.143852042E0,-1.144761592E-1,-9.984912723E-2,-1.109937727E-1,1.881336143E-1
2.153793042E0,-1.252305359E-1,-8.105733246E-2,-8.757899702E-2,1.729828286E-1
2.163734042E0,-1.373421401E-1,-5.134299770E-2,-7.414843142E-2,1.643075066E-1
2.173674042E0,-1.245981231E-1,8.831392974E-3,-7.649574429E-2,1.464728121E-1
2.183615042E0,-1.115649566E-1,6.205523014E-2,-8.430612832E-2,1.529873014E-1
2.193556042E0,-1.143658012E-1,1.020902619E-1,-9.884911776E-2,1.824091723E-1
2.203497042E0,-1.256219447E-1,1.223265082E-1,-1.059566662E-1,2.048693796E-1
2.213438042E0,-1.330375224E-1,1.403172314E-1,-1.036194786E-1,2.193738913E-1
2.223379042E0,-1.316686422E-1,1.362495720E-1,-8.886040002E-2,2.092767257E-1
2.233320042E0,-1.096791700E-1,1.136337370E-1,-6.010013074E-2,1.689797982E-1
2.243261042E0,-8.468888700E-2,6.980674714E-2,-1.829954609E-2,1.112657311E-1
2.253202042E0,-5.391553044E-2,1.753103174E-2,3.540123254E-2,6.683912598E-2
2.263142042E0,-1.069292426E-2,-3.679262474E-2,8.889152855E-2,9.679741583E-2
2.273083042E0,4.138066247E-2,-1.254327446E-1,1.289555877E-1,1.845948977E-1
2.283024042E0,1.218108535E-1,-2.035524994E-1,1.521738470E-1,2.818304166E-1
2.292965042E0,2.030423284E-1,-2.346947044E-1,1.624813378E-1,3.502969833E-1
2.302906042E0,2.490362078E-1,-2.294963151E-1,1.788297296E-1,3.829721447E-1
2.312847042E0,2.632630765E-1,-2.009512186E-1,1.798449308E-1,3.768727091E-1
2.322788042E0,2.483693361E-1,-1.580113769E-1,1.635780334E-1,3.367680142E-1
2.332729042E0,2.032029182E-1,-9.679701924E-2,1.439433396E-1,2.671718060E-1
2.342670042E0,1.405536681E-1,-3.737800941E-2,1.308800578E-1,1.956579637E-1
2.352611042E0,7.735445350E-2,-4.528981168E-3,1.227651313E-1,1.451740356E-1
2.362551042E0,3.483267128E-2,-6.410218310E-3,1.163732484E-1,1.216434907E-1
2.372492042E0,2.860646695E-2,-1.926103421E-2,1.167961583E-1,1.217811971E-1
2.382433042E0,2.870889008E-2,-1.352966577E-2,1.303647310E-1,1.341723343E-1
2.392374042E0,2.693043090E-2,-1.345270127E-2,1.498806328E-1,1.528738936E-1
2.402315042E0,1.178357657E-2,-3.348226100E-2,1.676011235E-1,1.713185660E-1
2.412256042E0,6.454383256E-4,-6.762398779E-2,1.727660447E-1,1.855303925E-1
2.422197042E0,-6.026062183E-3,-9.751253575E-2,1.721928716E-1,1.979782641E-1
2.432138042E0,-1.809630543E-2,-1.303722262E-1,1.774688661E-1,2.209515605E-1
2.442079042E0,-3.388611227E-2,-1.498114467E-1,1.901527643E-1,2.444377465E-1
2.452019042E0,-4.072351009E-2,-1.465014070E-1,1.942199469E-1,2.466626325E-1
2.461960042E0,-2.692526579E-2,-1.561771035E-1,1.902832538E-1,2.476367789E-1
2.471901042E0,6.619377993E-3,-1.592176408E-1,1.797387302E-1,2.402084187E-1
2.481842042E0,4.929818213E-2,-1.425812244E-1,1.728775799E-1,2.294479766E-1
2.491783042E0,6.315806508E-2,-1.161011308E-1,1.801536083E-1,2.234362020E-1
2.501724042E0,4.310946167E-2,-9.492003918E-2,1.928669959E-1,2.192394071E-1
2.511665042E0,2.113545500E-2,-8.538805693E-2,1.999153197E-1,2.184123686E-1
2.521606042E0,-6.687481422E-3,-9.605681896E-2,2.098831683E-1,2.309168232E-1
2.531547042E0,-3.214064240E-2,-1.158172041E-1,2.226349115E-1,2.530078052E-1
2.541487042E0,-4.054722190E-2,-1.510824561E-1,2.426124662E-1,2.886707372E-1
2.551428042E0,-3.845371306E-2,-1.939617544E-1,2.633297145E-1,3.293059198E-1
2.561369042E0,-2.738837339E-2,-2.266964167E-1,2.907700539E-1,3.697142310E-1
2.571310042E0,3.305685893E-2,-2.638123631E-1,2.975563109E-1,3.990356839E-1
2.581251042E0,1.310947984E-1,-2.475631237E-1,2.856552899E-1,4.000903536E-1
2.591192042E0,2.176994681E-1,-2.214447111E-1,2.891091704E-1,4.242816646E-1
2.601133042E0,2.525829077E-1,-1.659033746E-1,2.968403995E-1,4.235991947E-1
2.611074042E0,2.304251343E-1,-8.364817500E-2,3.018426299E-1,3.888466702E-1
2.621015042E0,1.855918169E-1,-1.005411334E-2,2.998010814E-1,3.527408342E-1
2.630956042E0,1.538711637E-1,2.586793527E-2,2.878384292E-1,3.274086841E-1
2.640896042E0,1.423883736E-1,2.932786383E-2,2.643673718E-1,3.017029662E-1
2.650837042E0,1.549603641E-1,2.617689548E-3,2.406524420E-1,2.862396978E-1
2.660778042E0,1.809074730E-1,-4.235190153E-2,2.341156602E-1,2.988834885E-1
2.670719042E0,2.157179117E-1,-9.403320402E-2,2.235138714E-1,3.245534033E-1
2.680660042E0,2.616415918E-1,-1.286491603E-1,2.146439254E-1,3.620482616E-1
2.690601042E0,2.963249981E-1,-1.512500793E-1,2.140716314E-1,3.956156650E-1
2.700542042E0,3.245467842E-1,-1.597889662E-1,2.077679336E-1,4.171698012E-1
2.710483042E0,3.231781721E-1,-1.587482095E-1,1.952939332E-1,4.096154847E-1
2.720424042E0,2.976116836E-1,-1.769044250E-1,1.723240167E-1,3.867343488E-1
2.730364042E0,2.535118759E-1,-1.911062598E-1,1.435227394E-1,3.484087405E-1
2.740305042E0,2.090481967E-1,-1.969766021E-1,1.084369570E-1,3.070171069E-1
2.750246042E0,1.625621915E-1,-1.855473816E-1,7.717490941E-2,2.584768144E-1
2.760187042E0,1.129598171E-1,-1.762057245E-1,5.379164219E-2,2.161062664E-1
2.770128042E0,6.529057026E-2,-1.542796493E-1,4.122551531E-2,1.725242355E-1
2.780069042E0,1.118773408E-2,-1.382604837E-1,5.014255270E-2,1.474971266E-1
2.790010042E0,-1.590992883E-2,-1.443825662E-1,5.231995136E-2,1.543918022E-1
2.799951042E0,1.285748836E-2,-1.351061761E-1,4.713543132E-2,1.436688648E-1
2.809891042E0,5.067730322E-2,-1.003846824E-1,5.406764150E-2,1.247741295E-1
2.819832042E0,6.001758948E-2,-7.194670290E-2,7.341831177E-2,1.190322965E-1
2.829773292E0,6.847286224E-2,-4.937241971E-2,8.966519684E-2,1.231503805E-1
2.839714292E0,7.606467605E-2,-4.568430036E-2,9.996150434E-2,1.336607369E-1
2.849655292E0,7.823621482E-2,-5.318855494E-2,1.078452617E-1,1.434591515E-1
2.859596292E0,7.271035761E-2,-5.581320450E-2,1.042902768E-1,1.388465762E-1
2.869537292E0,5.605414882E-2,-5.856238678E-2,1.044956073E-1,1.322533655E-1
2.879478292E0,3.638554364E-2,-6.404091418E-2,1.139097810E-1,1.356487548E-1
2.889419292E0,2.264123783E-2,-7.120668143E-2,1.285089552E-1,1.486525099E-1
2.899360292E0,5.276480224E-4,-8.540163934E-2,1.447713822E-1,1.680847153E-1
2.909300292E0,-2.063191496E-4,-1.024860814E-1,1.469812691E-1,1.791840755E-1
2.919241292E0,2.434399910E-2,-1.008197889E-1,1.450740695E-1,1.783360473E-1
2.929182292E0,3.722464666E-2,-1.007393673E-1,1.414934546E-1,1.776358413E-1
2.939123292E0,3.883137554E-2,-1.022265404E-1,1.451307535E-1,1.817170243E-1
2.949064292E0,3.154230118E-2,-1.057248712E-1,1.400513053E-1,1.782891844E-1
2.959005292E0,1.553277299E-2,-1.211860254E-1,1.277616322E-1,1.767776979E-1
2.968946292E0,3.490262316E-4,-1.347447187E-1,1.054017320E-1,1.710724588E-1
2.978887292E0,-8.655118756E-3,-1.346235275E-1,9.094974399E-2,1.626968382E-1
2.988828292E0,-9.678039700E-3,-1.288955957E-1,7.504374534E-2,1.494633826E-1
2.998768292E0,-2.834545681E-3,-1.050622240E-1,6.254889816E-2,1.223048250E-1
3.008709292E0,3.864369588E-3,-5.821402743E-2,5.141555518E-2,7.776480989E-2
3.018650292E0,8.648768067E-3,9.484036709E-4,4.202462733E-2,4.291584743E-2
3.028591292E0,1.024187077E-2,4.572945833E-2,3.666554764E-2,5.950161057E-2
3.038532292E0,1.598097850E-3,7.478182763E-2,3.805985674E-2,8.392513542E-2
3.048473292E0,-1.125831250E-2,9.573957324E-2,4.605759308E-2,1.068368727E-1
3.058414292E0,-2.102573775E-2,9.717379510E-2,5.435595661E-2,1.133110680E-1
3.068355292E0,-2.153839543E-2,7.706239820E-2,5.657703429E-2,9.799732906E-2
3.078295292E0,-1.328312978E-2,3.972380981E-2,5.855682865E-2,7.199531085E-2
3.088236292E0,3.599780903E-4,6.024438422E-3,5.993794277E-2,6.024101947E-2
3.098177292E0,7.763016503E-3,-1.944059879E-2,6.597793847E-2,6.921914238E-2
3.108118292E0,5.350725725E-3,-2.807004005E-2,7.750410587E-2,8.260413936E-2
3.118059292E0,-3.509361530E-3,-5.023488775E-2,8.370735496E-2,9.768715801E-2
3.128000292E0,-1.196782757E-2,-7.578738779E-2,8.797134459E-2,1.167300926E-1
3.137941292E0,-2.419142798E-2,-1.008701697E-1,8.843842894E-2,1.363135064E-1
3.147882292E0,-4.414436221E-2,-1.167404801E-1,9.328884631E-2,1.558200027E-1
3.157823292E0,-6.687525660E-2,-1.318961531E-1,9.396248311E-2,1.752080003E-1
3.167763292E0,-8.643404394E-2,-1.293232739E-1,1.009700596E-1,1.854462350E-1
3.177704292E0,-1.038416997E-1,-1.206132546E-1,1.161453873E-1,1.970289491E-1
3.187645292E0,-1.181505919E-1,-1.070702821E-1,1.199571714E-1,1.995327808E-1
3.197586292E0,-1.357153654E-1,-1.015338078E-1,1.212778091E-1,2.084132470E-1
3.207527292E0,-1.452950239E-1,-1.057503968E-1,1.182061210E-1,2.150964376E-1
3.217468292E0,-1.467960030E-1,-1.157986596E-1,1.218567342E-1,2.231758493E-1
3.227409292E0,-1.417453140E-1,-1.085356846E-1,1.304204017E-1,2.210909543E-1
3.237350292E0,-1.210787073E-1,-8.468236774E-2,1.484927684E-1,2.094785407E-1
3.247291292E0,-8.333878219E-2,-5.344375223E-2,1.740681678E-1,2.002531256E-1
3.257231292E0,-4.099151865E-2,-2.904442325E-2,1.951093376E-1,2.014734144E-1
3.267172292E0,-5.240977742E-3,-2.374180406E-2,2.057883441E-1,2.072196508E-1
3.277113292E0,1.951069199E-2,-3.931399807E-2,2.033664137E-1,2.080484457E-1
3.287054292E0,5.181563273E-2,-5.428229645E-2,1.785793155E-1,1.937059613E-1
3.296995292E0,7.525934279E-2,-6.932530552E-2,1.446338445E-1,1.771691724E-1
3.306936292E0,9.260131419E-2,-7.461913675E-2,1.069852710E-1,1.599652061E-1
3.316877292E0,1.019780263E-1,-7.943002135E-2,8.111012727E-2,1.526024210E-1
3.326818292E0,9.155068547E-2,-8.178851753E-2,6.093801558E-2,1.370559424E-1
3.336758292E0,7.595133036E-2,-7.631062716E-2,5.617377162E-2,1.214389107E-1
3.346699292E0,5.632250011E-2,-7.271749526E-2,5.834558234E-2,1.089232074E-1
3.356640292E0,3.601921722E-2,-6.088195741E-2,5.867077038E-2,9.190351486E-2
3.366581292E0,1.600183360E-2,-3.915002942E-2,5.195454508E-2,6.699297155E-2
3.376522292E0,-1.671119966E-2,-3.135616332E-2,4.231726006E-2,5.525598312E-2
3.386463292E0,-5.131125450E-2,-3.496474773E-2,2.559127659E-2,6.715870650E-2
3.396404292E0,-8.432880044E-2,-4.235865548E-2,6.095348857E-3,9.456614381E-2
3.406345292E0,-1.125697568E-1,-2.379535697E-2,1.258920040E-2,1.157439291E-1
3.416286292E0,-1.285497397E-1,6.925208494E-3,2.933192439E-2,1.320354342E-1
3.426226292E0,-1.394207627E-1,2.140588127E-2,5.557125062E-2,1.516064798E-1
3.436167292E0,-1.349565834E-1,1.928602345E-2,7.867509127E-2,1.574007627E-1
3.446108292E0,-1.113202348E-1,6.039992906E-3,1.014075726E-1,1.507055805E-1
3.456049292E0,-6.896359473E-2,-1.569840685E-2,1.259659231E-1,1.444639441E-1
3.465990292E0,-2.919993922E-2,-4.139205441E-2,1.473260820E-1,1.557912483E-1
3.475931292E0,2.401318634E-3,-8.034422994E-2,1.540100276E-1,1.737240635E-1
3.485872292E0,2.559425682E-2,-1.199960336E-1,1.433592439E-1,1.886954871E-1
3.495813292E0,4.948851466E-2,-1.275545806E-1,1.207563505E-1,1.824866578E-1
3.505753292E0,5.501697212E-2,-1.096120700E-1,9.621026367E-2,1.558784397E-1
3.515694292E0,4.548600316E-2,-8.164454997E-2,6.947349012E-2,1.164533162E-1
3.525635292E0,2.670432813E-2,-5.399161950E-2,4.050176591E-2,7.258518553E-2
3.535576292E0,3.103199182E-3,-2.431656793E-2,1.323566400E-2,2.785871717E-2
3.545517292E0,-1.926202886E-2,1.339379139E-2,-5.523908883E-3,2.410255117E-2
3.555458292E0,-3.583653644E-2,5.335096642E-2,-1.495710015E-2,6.598710334E-2
3.565399292E0,-4.513336346E-2,7.908562571E-2,-2.555834502E-2,9.457687715E-2
3.575340292E0,-4.671891779E-2,8.700653911E-2,-2.911862172E-2,1.029596487E-1
3.585280292E0,-4.209433869E-2,8.073080331E-2,-3.263080120E-2,9.671693306E-2
3.595221292E0,-3.054248169E-2,7.562651485E-2,-3.104202449E-2,8.726866689E-2
3.605162292E0,-2.246777713E-2,5.678810552E-2,-2.995092794E-2,6.802020304E-2
3.615103292E0,-1.969881169E-2,2.909867279E-2,-2.569007687E-2,4.352879495E-2
3.625044292E0,-1.035191491E-2,4.830081016E-4,-2.647997066E-2,2.843561650E-2
3.634985292E0,-4.672036972E-3,-5.635903217E-3,-2.101984434E-2,2.225814886E-2
3.644926292E0,-7.500314154E-3,-1.007246412E-2,-2.045338973E-2,2.400104993E-2
3.654867292E0,-2.481616288E-2,-1.091237739E-2,-2.049342170E-2,3.398385284E-2
3.664808292E0,-5.136281997E-2,-9.532209951E-4,-2.815826610E-2,5.858272659E-2
3.674748292E0,-7.681757212E-2,2.805073559E-2,-3.576726839E-2,8.925850459E-2
3.684689292E0,-9.534464777E-2,5.406662077E-2,-4.506702721E-2,1.185109205E-1
3.694630292E0,-1.068498194E-1,7.051585615E-2,-5.904863030E-2,1.409826607E-1
3.704571292E0,-1.138890833E-1,7.120054960E-2,-6.416562945E-2,1.488538530E-1
3.714512292E0,-1.144428998E-1,7.250367105E-2,-6.539221853E-2,1.504330478E-1
3.724453292E0,-1.098486781E-1,7.307545096E-2,-5.079702660E-2,1.413757105E-1
3.734394292E0,-1.059190780E-1,5.872024596E-2,-3.638589382E-2,1.264549392E-1
3.744335292E0,-9.004583955E-2,3.783653304E-2,-1.998348348E-2,9.969551677E-2
3.754275292E0,-7.492703944E-2,2.604437061E-2,-2.031286946E-3,7.935046696E-2
3.764216292E0,-6.253535300E-2,6.154552102E-3,8.760374039E-3,6.344519714E-2
3.774157292E0,-5.714593083E-2,-1.294899173E-2,4.062776919E-3,5.873533820E-2
3.784098292E0,-5.419221893E-2,-1.876373775E-2,-2.933613257E-3,5.742369314E-2
3.794039292E0,-4.850925133E-2,-6.364120636E-3,-1.195466332E-2,5.036430751E-2
3.803980292E0,-3.494124487E-2,1.439309027E-2,-2.937120199E-2,4.786145785E-2
3.813921292E0,-2.705040760E-2,3.080132604E-2,-4.716739804E-2,6.249167684E-2
3.823862292E0,-2.067826129E-2,5.057662725E-2,-5.749406666E-2,7.931679151E-2
3.833803292E0,-1.604278013E-2,5.316133425E-2,-6.687723100E-2,8.692561348E-2
3.843743292E0,-1.142394962E-3,3.724468499E-2,-6.598293781E-2,7.577743535E-2
3.853684292E0,1.562825218E-2,3.199401498E-2,-5.521158129E-2,6.569762529E-2
3.863625292E0,2.737891674E-2,2.215416543E-2,-4.310165346E-2,5.566115934E-2
3.873566292E0,4.166772962E-2,1.580755599E-2,-2.829622850E-2,5.278972499E-2
3.883507292E0,4.412023351E-2,8.755238727E-3,-1.478494704E-2,4.734811368E-2
3.893448292E0,3.846134245E-2,2.689036774E-4,-6.951248273E-3,3.908538122E-2
3.903389292E0,2.994295582E-2,-8.068388328E-3,-7.443666458E-3,3.189181186E-2
3.913330292E0,1.744394191E-2,-1.553882100E-2,-1.687977836E-2,2.882139803E-2
3.923270292E0,5.490078125E-3,-1.470418647E-2,-1.488374081E-2,2.163052930E-2
3.933211292E0,-1.348540839E-2,-3.548376495E-3,-5.109748803E-3,1.485115309E-2
3.943152292E0,-2.291725948E-2,7.985508069E-3,4.368974362E-3,2.465881300E-2
3.953093292E0,-2.867381088E-2,2.780269831E-2,1.421261579E-2,4.239311161E-2
3.963034292E0,-2.617310174E-2,3.504330292E-2,2.385831997E-2,4.982252268E-2
3.972975292E0,-2.156084962E-2,2.710363641E-2,2.859442681E-2,4.491234338E-2
3.982916292E0,-3.475324018E-3,5.193809513E-3,3.036116809E-2,3.099764607E-2
3.992857292E0,1.028184406E-2,-1.515382342E-2,3.239188716E-2,3.721006632E-2
4.002797292E0,2.081677690E-2,-3.390140831E-2,3.335382044E-2,5.191455503E-2
4.012738292E0,2.447967231E-2,-3.876503184E-2,2.763703279E-2,5.353305177E-2
4.022679292E0,9.243459441E-3,-4.113764316E-2,2.350993082E-2,4.827488036E-2
4.032620292E0,-7.797687314E-3,-3.529203311E-2,1.248349342E-2,3.823832026E-2
4.042561292E0,-3.106918745E-2,-3.010686114E-2,1.003551576E-2,4.441203748E-2
4.052502292E0,-4.179473221E-2,-2.731151320E-2,3.506166860E-3,5.005009091E-2
4.062443292E0,-4.324136302E-2,-2.461319789E-2,1.578038209E-3,4.978067086E-2
4.072384292E0,-4.097668082E-2,-1.503256988E-2,6.213080604E-3,4.408706044E-2
4.082324292E0,-3.441412002E-2,-1.219390612E-2,6.837059278E-3,3.714523365E-2
4.092265292E0,-2.942888811E-2,-1.124572661E-2,6.989935413E-3,3.227049766E-2
4.102206292E0,-2.593588643E-2,-1.197463367E-2,3.107046243E-3,2.873527088E-2
4.112147292E0,-2.654900588E-2,-1.219017804E-2,4.691747017E-4,2.921763643E-2
4.122088292E0,-2.964679338E-2,-2.147422358E-2,-6.311233155E-3,3.714709006E-2
4.132029292E0,-3.003928997E-2,-2.431507967E-2,-7.144394331E-3,3.930171003E-2
4.141970292E0,-2.343251929E-2,-2.824004740E-2,-4.075634293E-3,3.692145761E-2
4.151911292E0,-1.755326614E-2,-2.351071313E-2,2.035428770E-4,2.934130559E-2
4.161851292E0,-1.760386676E-2,-1.525651105E-2,3.171369666E-3,2.350988813E-2
4.171792292E0,-1.897821203E-2,1.658055466E-3,6.719917525E-3,2.020096461E-2
4.181733292E0,-1.963254996E-2,1.608679630E-2,3.499356797E-3,2.562162233E-2
4.191674292E0,-2.053374052E-2,2.670327015E-2,-3.364226082E-3,3.385287512E-2
4.201615292E0,-1.842584834E-2,1.924375445E-2,-1.062160637E-2,2.868191929E-2
4.211556292E0,-1.450007223E-2,1.944775321E-2,-1.773739234E-2,3.005132753E-2
4.221497292E0,-1.026777737E-2,1.565674320E-2,-1.964608207E-2,2.713907516E-2
4.231438292E0,-4.543458112E-3,7.117237896E-3,-1.958614029E-2,2.132873598E-2
4.241378292E0,1.395124593E-3,-4.740486853E-3,-2.368474565E-2,2.419474664E-2
4.251319292E0,-3.750215052E-3,-1.822225749E-3,-2.451047860E-2,2.486258596E-2
4.261260292E0,-1.129468344E-2,1.514583826E-2,-2.306944132E-2,2.981887680E-2
4.271201292E0,-2.318450250E-2,2.077328600E-2,-2.550630085E-2,4.024452696E-2
4.281142292E0,-3.345764801E-2,1.146234199E-2,-2.765600383E-2,4.489603593E-2
4.291083292E0,-3.631116450E-2,-6.572757382E-3,-3.160306439E-2,4.858451899E-2
4.301024292E0,-2.998588979E-2,-1.977472566E-3,-2.931674197E-2,4.198256000E-2
4.310965292E0,-1.078765932E-2,1.014714781E-2,-2.384411730E-2,2.806920256E-2
4.320905292E0,6.471548113E-4,1.657548547E-2,-1.362876315E-2,2.146878461E-2
4.330846292E0,4.379196558E-3,7.991554216E-3,-8.554529399E-3,1.249889093E-2
4.340787292E0,1.593358815E-2,-7.272887044E-3,-1.024963148E-2,2.029357195E-2
4.350728292E0,2.220740914E-2,-1.671212912E-2,-1.064418629E-2,2.976177048E-2
4.360669292E0,2.611746080E-2,-1.091070101E-2,-6.658499129E-3,2.907749587E-2
4.370610292E0,2.776528895E-2,6.122265477E-3,-7.415170781E-3,2.938329734E-2
4.380551292E0,1.821466163E-2,6.495107897E-3,-1.453418517E-3,1.939259524E-2
4.390491292E0,1.600401290E-2,-8.757675998E-3,-1.019847672E-2,2.090058002E-2
4.400432292E0,2.262356505E-2,-2.104736492E-2,-1.915921457E-2,3.635784329E-2
4.410373292E0,2.288312279E-2,-2.299416810E-2,-2.282875776E-2,3.966763487E-2
4.420314292E0,2.616307326E-2,-1.384168305E-2,-2.173526399E-2,3.672220435E-2
4.430255292E0,2.098359168E-2,-1.892046188E-3,-2.378086559E-2,3.177137905E-2
4.440196292E0,1.332593802E-2,3.316031536E-3,-2.715695463E-2,3.043151120E-2
4.450137292E0,2.607241273E-3,2.063014917E-2,-4.662799463E-2,5.105458495E-2
4.460078292E0,4.029635806E-3,1.087472308E-2,-4.749671742E-2,4.889208252E-2
4.470018292E0,2.087337151E-2,-6.192739587E-3,-4.066520929E-2,4.612707349E-2
4.479959292E0,2.629104070E-2,-1.424773689E-2,-3.975387663E-2,4.974522625E-2
4.489900292E0,2.216295153E-2,-7.473469246E-3,-4.253469408E-2,4.854121304E-2
4.499841292E0,1.157768536E-2,2.659326186E-3,-4.076582193E-2,4.246135952E-2
4.509782292E0,-1.957163680E-3,4.119351506E-3,-3.277041391E-2,3.308624448E-2
4.519723292E0,-3.595911403E-5,-5.108767655E-3,-2.907341160E-2,2.951887637E-2
4.529664292E0,3.351523541E-3,-1.868166402E-2,-2.796075307E-2,3.379409701E-2
4.539605292E0,1.063580252E-2,-3.796667606E-2,-2.898873575E-2,4.893807910E-2
4.549545292E0,2.040258422E-2,-5.177450925E-2,-2.426891774E-2,6.071116553E-2
4.559486292E0,2.158582583E-2,-6.064470112E-2,-2.088590525E-2,6.767531817E-2
4.569427292E0,3.088210523E-2,-5.516752973E-2,-1.814609021E-2,6.577568966E-2
4.579368292E0,3.929769248E-2,-2.898360044E-2,-1.604219340E-2,5.139756509E-2
4.589309292E0,3.561595082E-2,-1.841476071E-3,-4.302922171E-3,3.592216762E-2
4.599250292E0,3.434162959E-2,1.777270436E-2,6.519631948E-3,3.921380043E-2
4.609191292E0,3.946368769E-2,1.603552513E-2,1.902636886E-2,4.665322523E-2
4.619132292E0,4.261900112E-2,3.108807839E-3,3.796783835E-2,5.716293110E-2
4.629072292E0,5.573206022E-2,-1.232898980E-2,5.299892277E-2,7.789064347E-2
4.639013292E0,6.326986849E-2,-2.443438768E-2,7.968778908E-2,1.046434866E-1
4.648954292E0,7.164499164E-2,-3.827601299E-2,1.120013073E-1,1.383558847E-1
4.658895292E0,7.719928026E-2,-6.119730696E-2,1.294575334E-1,1.626778786E-1
4.668836292E0,7.430690527E-2,-8.550558984E-2,1.341498196E-1,1.755815940E-1
4.678777292E0,7.432820648E-2,-9.170009941E-2,1.308416426E-1,1.762189716E-1
4.688718292E0,5.992887914E-2,-8.107699454E-2,1.222552136E-1,1.584654121E-1
4.698659292E0,4.123907909E-2,-7.371281832E-2,9.685957432E-2,1.285146621E-1
4.708599292E0,2.287945710E-2,-5.788291991E-2,6.695826352E-2,9.141832982E-2
4.718540292E0,4.790775711E-4,-3.625059500E-2,4.175756872E-2,5.529945478E-2
4.728481292E0,-3.104350902E-2,-2.221215516E-2,1.885232888E-2,4.257334370E-2
4.738422292E0,-6.169915572E-2,-2.496241126E-3,1.003007405E-2,6.255892759E-2
4.748363292E0,-8.181098104E-2,1.173066627E-2,1.572282240E-2,8.412997262E-2
4.758304292E0,-7.531367242E-2,1.107313111E-2,2.423534915E-2,7.988814452E-2
4.768245292E0,-5.173269287E-2,-4.033227917E-3,3.480761498E-2,6.248286565E-2
4.778185292E0,-2.243578807E-2,-2.116587572E-2,3.956322372E-2,5.016580062E-2
4.788126292E0,6.608380005E-3,-3.497063741E-2,3.991688788E-2,5.347872573E-2
4.798067292E0,2.833231725E-2,-5.368972942E-2,3.643081337E-2,7.079909187E-2
4.808008292E0,3.602900729E-2,-6.776749343E-2,3.041191585E-2,8.255547927E-2
4.817949292E0,4.958423227E-2,-6.392748654E-2,2.585657872E-2,8.493457652E-2
4.827889667E0,5.518912151E-2,-5.780434236E-2,2.150124498E-2,8.276161347E-2
4.837830667E0,6.241960078E-2,-4.644489661E-2,2.054943144E-2,8.047120054E-2
4.847771667E0,7.472009957E-2,-3.903228417E-2,2.281163447E-2,8.733260075E-2
4.857711667E0,8.269919455E-2,-2.858417109E-2,2.934170701E-2,9.228839248E-2
4.867652667E0,9.043169022E-2,-7.746537216E-3,4.051411152E-2,9.939463097E-2
4.877593667E0,9.631195664E-2,-1.756023034E-3,4.737947509E-2,1.073493888E-1
4.887534667E0,8.967144042E-2,-1.863658987E-2,5.437792093E-2,1.065140742E-1
4.897475667E0,1.036370546E-1,-1.805122755E-2,5.974312872E-2,1.209782101E-1
4.907416667E0,1.075233147E-1,-1.261985023E-2,5.343851820E-2,1.207319305E-1
4.917357667E0,1.088985726E-1,-1.041422039E-2,3.677378967E-2,1.154108605E-1
4.927298667E0,1.061320379E-1,-2.186292782E-2,2.576312423E-2,1.113810382E-1
4.937238667E0,9.031525999E-2,-2.539481223E-2,2.235560864E-2,9.644436693E-2
4.947179667E0,5.061327666E-2,-2.806056291E-2,3.106998280E-2,6.568441821E-2
4.957120667E0,1.084828563E-2,-4.131431878E-2,4.655440152E-2,6.318125147E-2
4.967061667E0,-1.655931212E-2,-6.204106659E-2,6.526817381E-2,9.156003099E-2
4.977002667E0,-1.179971173E-2,-9.281256050E-2,7.847692072E-2,1.221148299E-1
4.986943667E0,3.361625597E-3,-1.112395525E-1,9.766516834E-2,1.480676321E-1
4.996884667E0,2.505546808E-2,-1.266158372E-1,1.090808138E-1,1.689910372E-1
5.006824667E0,4.150950536E-2,-1.249188185E-1,1.133664027E-1,1.737230310E-1
5.016765667E0,5.156826600E-2,-1.252043098E-1,1.065753475E-1,1.723186291E-1
5.026706667E0,4.540974274E-2,-1.246995926E-1,8.282136917E-2,1.564334118E-1
5.036647667E0,3.382286057E-2,-1.222090051E-1,5.508854240E-2,1.382525744E-1
5.046588667E0,1.422020886E-2,-1.085257009E-1,3.225572407E-2,1.141072908E-1
5.056529667E0,-2.845061477E-3,-9.561736137E-2,2.257912979E-2,9.828830689E-2
5.066470667E0,-8.778546005E-3,-8.663191646E-2,2.904658206E-2,9.179246020E-2
5.076410667E0,5.956457928E-3,-8.041609824E-2,4.038472101E-2,9.018400045E-2
5.086351667E0,3.698053584E-2,-7.640348375E-2,6.011010706E-2,1.040109481E-1
5.096292667E0,8.175545931E-2,-8.531256020E-2,8.276908100E-2,1.442667974E-1
5.106233667E0,1.124823466E-1,-1.105872020E-1,1.006360278E-1,1.871080373E-1
5.116174667E0,1.269425154E-1,-1.368467808E-1,1.122796386E-1,2.178259876E-1
5.126115667E0,1.321679205E-1,-1.550730169E-1,1.239786819E-1,2.385093569E-1
5.136056667E0,1.317490041E-1,-1.686956137E-1,1.306216866E-1,2.507549305E-1
5.145997667E0,1.330813468E-1,-1.685332209E-1,1.402648985E-1,2.564923647E-1
5.155937667E0,1.330429912E-1,-1.553649455E-1,1.510264575E-1,2.542591093E-1
5.165878667E0,1.341009140E-1,-1.420102268E-1,1.561023295E-1,2.500357913E-1
5.175819667E0,1.358181238E-1,-1.228229627E-1,1.592856050E-1,2.427013533E-1
5.185760667E0,1.415544897E-1,-1.156621203E-1,1.531580985E-1,2.384801936E-1
5.195701667E0,1.391280740E-1,-1.054941714E-1,1.412417889E-1,2.245771228E-1
5.205642667E0,1.299718022E-1,-9.213106334E-2,1.218371764E-1,2.005619599E-1
5.215583667E0,1.132050753E-1,-8.911449462E-2,1.019905061E-1,1.765186833E-1
5.225523667E0,8.648245782E-2,-8.923382312E-2,8.434765041E-2,1.501879384E-1
5.235464667E0,6.955913454E-2,-7.725066692E-2,5.650190637E-2,1.183156970E-1
5.245405667E0,5.274159834E-2,-6.761365384E-2,3.682116047E-2,9.332245303E-2
5.255346667E0,2.632889710E-2,-6.335312873E-2,1.195788756E-2,6.964065492E-2
5.265287667E0,-7.245915942E-3,-6.246681139E-2,-1.144922618E-2,6.391940709E-2
5.275228667E0,-5.385576189E-2,-4.630169272E-2,-2.549740113E-2,7.546129672E-2
5.285169667E0,-9.784194082E-2,-2.659231797E-2,-2.902575023E-2,1.054641690E-1
5.295109667E0,-1.313399673E-1,-1.120590419E-2,-2.845636941E-2,1.348537142E-1
5.305050667E0,-1.537828147E-1,3.393692896E-5,-1.772824116E-2,1.548013107E-1
5.314991667E0,-1.568174958E-1,1.354148984E-2,-1.296011731E-2,1.579337316E-1
5.324932667E0,-1.500924975E-1,2.869259194E-2,-8.107619360E-3,1.530253447E-1
5.334873667E0,-1.427917033E-1,2.918873727E-2,1.073096413E-3,1.457484287E-1
5.344814667E0,-1.368444115E-1,2.767251432E-2,1.505104452E-2,1.404232707E-1
5.354755667E0,-1.169974655E-1,2.431293763E-2,2.471139468E-2,1.220253207E-1
5.364696667E0,-9.414146096E-2,3.700472414E-2,4.021329805E-2,1.088534502E-1
5.374636667E0,-7.543275505E-2,4.641100764E-2,6.323473155E-2,1.088242319E-1
5.384577667E0,-6.038194895E-2,4.419206083E-2,7.841458917E-2,1.083871108E-1
5.394518667E0,-4.328925163E-2,2.284682542E-2,9.114529938E-2,1.034572488E-1
5.404459667E0,-3.199008852E-2,-1.317906007E-2,1.016203463E-1,1.073487223E-1
5.414400667E0,-1.627051458E-2,-4.331964999E-2,1.073650494E-1,1.169126835E-1
5.424341667E0,-4.138064105E-3,-5.784951895E-2,1.171343029E-1,1.307062941E-1
5.434282667E0,2.797340043E-3,-5.609263480E-2,1.303771436E-1,1.419591785E-1
5.444222667E0,8.817699738E-3,-5.167812482E-2,1.394208968E-1,1.489515588E-1
5.454163667E0,1.470994391E-2,-5.475434288E-2,1.512557119E-1,1.615323834E-1
5.464104667E0,2.020620927E-2,-6.151882187E-2,1.597687453E-1,1.723917292E-1
5.474045667E0,3.295795992E-2,-7.755771279E-2,1.679757982E-1,1.879289619E-1
5.483986667E0,5.459697917E-2,-9.469564259E-2,1.746894568E-1,2.060691660E-1
5.493927667E0,7.565353066E-2,-1.103228107E-1,1.794541180E-1,2.238266287E-1
5.503868667E0,1.140691936E-1,-1.207525730E-1,1.823662519E-1,2.466787682E-1
5.513808667E0,1.598974019E-1,-1.269790530E-1,1.869503558E-1,2.768416417E-1
5.523749667E0,2.034593821E-1,-1.231797487E-1,1.871465147E-1,3.026430052E-1
5.533690667E0,2.413628250E-1,-1.182382479E-1,1.829797328E-1,3.251428596E-1
5.543631667E0,2.626014650E-1,-1.191241667E-1,1.753644645E-1,3.374948769E-1
5.553572667E0,2.744815648E-1,-1.168405041E-1,1.653682888E-1,3.410843059E-1
5.563513667E0,2.767464221E-1,-1.243155897E-1,1.578894407E-1,3.420117300E-1
5.573454667E0,2.787105143E-1,-1.335927099E-1,1.400555819E-1,3.393259922E-1
5.583395667E0,2.692257166E-1,-1.405214667E-1,1.234729365E-1,3.278327853E-1
5.593335667E0,2.489593476E-1,-1.297212839E-1,1.117789894E-1,3.021637151E-1
5.603276667E0,2.244791240E-1,-1.240381226E-1,9.909298271E-2,2.749468170E-1
5.613217667E0,2.001937628E-1,-1.219177172E-1,8.211532980E-2,2.483634430E-1
5.623158667E0,1.913133860E-1,-1.287826449E-1,5.898666009E-2,2.380445491E-1
5.633099667E0,1.957912296E-1,-1.068451107E-1,3.502779827E-2,2.257809335E-1
5.643040667E0,2.014973313E-1,-8.377239853E-2,2.023797855E-2,2.191542038E-1
5.652981667E0,2.012600452E-1,-7.248645276E-2,8.394636214E-3,2.140802689E-1
5.662921667E0,2.029478699E-1,-7.067691535E-2,-8.485806175E-4,2.149041283E-1
5.672862667E0,2.030059248E-1,-6.362086535E-2,-8.592253551E-3,2.129151165E-1
5.682803667E0,1.954484582E-1,-5.124432221E-2,-7.773506921E-3,2.022041240E-1
5.692744667E0,1.811739206E-1,-5.147149041E-2,-5.976671819E-3,1.884383837E-1
5.702685667E0,1.643065363E-1,-6.326567382E-2,2.058663173E-3,1.760778846E-1
5.712626667E0,1.503193378E-1,-8.261806518E-2,8.638534695E-3,1.717447883E-1
5.722567667E0,1.357115060E-1,-9.501916170E-2,1.401059330E-2,1.662604904E-1
5.732507667E0,1.179540753E-1,-9.476376325E-2,3.013656661E-2,1.542775011E-1
5.742448667E0,9.095875919E-2,-8.746991307E-2,5.461506918E-2,1.375037721E-1
5.752389667E0,6.758605689E-2,-8.734554052E-2,7.470329106E-2,1.333330425E-1
5.762330667E0,6.228963658E-2,-1.001654863E-1,8.808706701E-2,1.472156746E-1
5.772271667E0,7.327730954E-2,-1.197831258E-1,8.918935061E-2,1.663499371E-1
5.782212667E0,9.114179015E-2,-1.247850731E-1,8.453413844E-2,1.761367677E-1
5.792153667E0,1.141882539E-1,-1.261789650E-1,8.082968742E-2,1.883972582E-1
5.802093667E0,1.167005301E-1,-1.274021417E-1,7.477833331E-2,1.882607727E-1
5.812034667E0,1.236500442E-1,-1.202590019E-1,5.906355381E-2,1.823185793E-1
5.821975583E0,1.156469956E-1,-9.657332301E-2,4.949660227E-2,1.585892428E-1
5.831916583E0,9.842114151E-2,-7.822867483E-2,4.324749485E-2,1.329540991E-1
5.841857583E0,8.426531404E-2,-6.738863885E-2,4.638921469E-2,1.174471415E-1
5.851798583E0,7.030981779E-2,-5.823775753E-2,4.589706287E-2,1.021843787E-1
5.861739583E0,6.438177824E-2,-4.513369873E-2,5.228530243E-2,9.442360394E-2
5.871679583E0,7.187058777E-2,-3.086847439E-2,5.355376750E-2,9.479583383E-2
5.881620583E0,8.254136145E-2,-2.629966848E-2,5.310213938E-2,1.016099706E-1
5.891561583E0,9.237082303E-2,-3.263053671E-2,5.297563970E-2,1.113711779E-1
5.901502583E0,9.898740798E-2,-3.451982513E-2,6.009604037E-2,1.208373259E-1
5.911443583E0,9.366081655E-2,-4.133858159E-2,6.709190458E-2,1.224032293E-1
5.921384583E0,9.132766724E-2,-4.876289889E-2,7.855902612E-2,1.299618548E-1
5.931325583E0,8.631266654E-2,-6.010876596E-2,9.600512683E-2,1.424076000E-1
5.941265583E0,8.329004794E-2,-7.358251512E-2,1.138190776E-1,1.590798574E-1
5.951206583E0,8.010837436E-2,-7.806967199E-2,1.359755099E-1,1.760726118E-1
5.961147583E0,7.423640043E-2,-8.620248735E-2,1.544945687E-1,1.918605841E-1
5.971088583E0,7.714350522E-2,-9.983174503E-2,1.732536107E-1,2.143229137E-1
5.981029583E0,7.443904877E-2,-1.204742268E-1,1.805968285E-1,2.295003829E-1
5.990970583E0,8.904409409E-2,-1.224758625E-1,1.753575802E-1,2.316883003E-1
6.000911583E0,1.115785763E-1,-1.060352251E-1,1.712840050E-1,2.302856010E-1
6.010851583E0,1.417897493E-1,-7.674551010E-2,1.465890408E-1,2.179049178E-1
6.020792583E0,1.631425768E-1,-4.399022087E-2,1.090662181E-1,2.011121076E-1
6.030733583E0,1.652222276E-1,-1.928487420E-2,6.424921751E-2,1.783206461E-1
6.040674583E0,1.403158158E-1,8.441560902E-3,3.410409763E-2,1.446474251E-1
6.050615583E0,9.652920067E-2,2.618061192E-2,1.409470383E-2,1.010048103E-1
6.060556583E0,6.217152625E-2,3.306243196E-2,1.004400104E-2,7.112879193E-2
6.070497583E0,4.246333614E-2,2.422020212E-2,1.151832752E-2,5.022374912E-2
6.080437583E0,3.787957504E-2,1.513012685E-3,1.858535036E-2,4.222045311E-2
6.090378583E0,4.382774606E-2,-2.728694305E-2,4.028611630E-2,6.548602716E-2
6.100319583E0,5.478471890E-2,-4.862647504E-2,6.149000674E-2,9.563953382E-2
6.110260583E0,5.957947299E-2,-7.177573442E-2,7.986927778E-2,1.228029771E-1
6.120201583E0,5.798349530E-2,-8.956262469E-2,9.093871713E-2,1.401905836E-1
6.130142583E0,5.623619631E-2,-9.494647384E-2,9.991943091E-2,1.488665017E-1
6.140083583E0,5.301304162E-2,-8.477757126E-2,1.055072099E-1,1.453595216E-1
6.150023583E0,4.327413067E-2,-7.226470858E-2,1.009209827E-1,1.314529697E-1
6.159964583E0,4.212436825E-2,-4.790342599E-2,8.896253258E-2,1.094693237E-1
6.169905583E0,3.556207195E-2,-6.762912963E-3,7.137048990E-2,8.002590069E-2
6.179846583E0,2.316670865E-2,2.560205199E-2,6.217247620E-2,7.111665243E-2
6.189787583E0,6.913969759E-3,5.557912216E-2,6.363082677E-2,8.476864935E-2
6.199728583E0,-3.341208678E-3,8.535471559E-2,7.122616470E-2,1.112194124E-1
6.209669583E0,-5.670675542E-3,9.603452682E-2,7.934001833E-2,1.246981372E-1
6.219609583E0,-1.486119465E-3,8.797285706E-2,8.812126517E-2,1.245262603E-1
6.229550583E0,1.677183318E-3,7.942251116E-2,1.028911546E-1,1.299897608E-1
6.239491583E0,1.377128763E-3,6.282389909E-2,1.135317311E-1,1.297620620E-1
6.249432583E0,1.025770511E-2,3.926371410E-2,1.252136827E-1,1.316257045E-1
6.259373583E0,2.042191103E-2,1.926704496E-2,1.276199371E-1,1.306718095E-1
6.269314583E0,6.751166284E-2,-7.394393906E-3,1.066928133E-1,1.264747330E-1
6.279255583E0,1.375134289E-1,4.440312088E-2,6.363590062E-2,1.578958775E-1
6.289195583E0,1.698764265E-1,1.251581609E-1,2.730000019E-2,2.127624392E-1
6.299136583E0,1.557465494E-1,1.976255327E-1,2.990944311E-3,2.516382018E-1
6.309077583E0,9.651972353E-2,2.712068260E-1,-2.468302660E-2,2.889263769E-1
6.319018583E0,4.760920536E-3,3.287129700E-1,-5.621420592E-2,3.335189949E-1
6.328959583E0,-9.242342412E-2,3.578074574E-1,-9.242547303E-2,3.809340284E-1
6.338900583E0,-1.617729664E-1,3.633556664E-1,-1.143706888E-1,4.138580523E-1
6.348841583E0,-1.945178658E-1,3.435523808E-1,-1.283884943E-1,4.151494236E-1
6.358781583E0,-2.014380246E-1,3.020355403E-1,-1.217160821E-1,3.829067119E-1
6.368722583E0,-2.028835863E-1,2.232152671E-1,-1.102410555E-1,3.211540057E-1
6.378663583E0,-1.956804097E-1,1.276301444E-1,-9.048125148E-2,2.505336970E-1
6.388604583E0,-1.816934943E-1,2.586916648E-2,-7.634945214E-2,1.987736866E-1
6.398545583E0,-1.569103450E-1,-7.516340166E-2,-6.478937715E-2,1.856557478E-1
6.408486583E0,-1.261263341E-1,-1.528611332E-1,-5.351088941E-2,2.052749217E-1
6.418427583E0,-9.978770465E-2,-2.018114030E-1,-4.723044857E-2,2.300350923E-1
6.428367583E0,-7.917510718E-2,-2.264357805E-1,-5.551633984E-2,2.462192606E-1
6.438308583E0,-6.883607060E-2,-2.138331383E-1,-6.031573564E-2,2.325962245E-1
6.448249583E0,-7.080841064E-2,-1.696049571E-1,-7.129488885E-2,1.971360791E-1
6.458190583E0,-7.075740397E-2,-9.754470736E-2,-9.085773677E-2,1.509195431E-1
6.468131583E0,-8.438826352E-2,5.073280074E-3,-1.332611144E-1,1.578152141E-1
6.478072583E0,-1.133755445E-1,1.372041851E-1,-1.911350340E-1,2.611735127E-1
6.488013583E0,-1.914772689E-1,2.910347581E-1,-2.852756381E-1,4.502743215E-1
6.497953583E0,-3.272616267E-1,4.787666798E-1,-4.493120611E-1,7.336204974E-1
6.507894583E0,-5.368026495E-1,6.983165741E-1,-6.581265330E-1,1.099515191E0
6.517835583E0,-7.968645096E-1,9.186742902E-1,-8.471224904E-1,1.482083672E0
6.527776583E0,-1.034062743E0,1.093311071E0,-1.002178550E0,1.808031167E0
6.537717583E0,-1.204058528E0,1.193131566E0,-1.114016652E0,2.028386791E0
6.547658583E0,-1.284938216E0,1.187008381E0,-1.177745223E0,2.108824062E0
6.557599583E0,-1.279299736E0,1.110242248E0,-1.173455834E0,2.060641710E0
6.567539583E0,-1.212272286E0,9.797926545E-1,-1.117724180E0,1.918047206E0
6.577480583E0,-1.099604726E0,8.091622591E-1,-1.014142156E0,1.700693513E0
6.587421583E0,-9.554621577E-1,6.062443256E-1,-8.704121709E-1,1.427605500E0
6.597362583E0,-7.796180844E-1,3.911385536E-1,-7.103655934E-1,1.124905775E0
6.607303583E0,-5.786684752E-1,1.873050183E-1,-5.501455665E-1,8.201222582E-1
6.617244583E0,-3.573590219E-1,7.753165439E-3,-3.963569701E-1,5.337269244E-1
6.627184583E0,-1.403963715E-1,-1.322582662E-1,-2.450132519E-1,3.118250851E-1
6.637125583E0,6.269355863E-2,-2.240243852E-1,-9.659986943E-2,2.518907347E-1
6.647066583E0,2.307432890E-1,-2.843990624E-1,3.938991949E-2,3.683433967E-1
6.657007583E0,3.545819223E-1,-3.027569354E-1,1.555181295E-1,4.915038048E-1
6.666948583E0,4.171704650E-1,-2.859854102E-1,2.450722456E-1,5.620313668E-1
6.676889583E0,4.268594086E-1,-2.482430935E-1,3.033606410E-1,5.795353887E-1
6.686830583E0,4.020105004E-1,-2.048460841E-1,3.254864514E-1,5.563414335E-1
6.696770583E0,3.595919907E-1,-1.773541570E-1,3.233077526E-1,5.150619377E-1
6.706711583E0,3.141970634E-1,-1.515465379E-1,3.071900308E-1,4.648137937E-1
6.716652583E0,2.695240080E-1,-1.412854642E-1,2.756698430E-1,4.106076419E-1
6.726593583E0,2.212100178E-1,-1.489319354E-1,2.432844788E-1,3.609735877E-1
6.736534583E0,1.837087125E-1,-1.589348316E-1,2.020582855E-1,3.159694961E-1
6.746475583E0,1.510636806E-1,-1.663336307E-1,1.532872915E-1,2.720001949E-1
6.756416583E0,1.190347522E-1,-1.754051149E-1,1.049039215E-1,2.365186236E-1
6.766356583E0,9.582956135E-2,-1.797122508E-1,5.286628753E-2,2.104154041E-1
6.776297583E0,7.998389006E-2,-1.522118300E-1,8.583316579E-3,1.721613696E-1
6.786238583E0,5.768017843E-2,-1.115301847E-1,-2.293812297E-2,1.276406776E-1
6.796179583E0,3.763796389E-2,-7.582138479E-2,-4.146827012E-2,9.426089403E-2
6.806120583E0,2.190241031E-2,-3.723271191E-2,-5.517343059E-2,7.007209043E-2
6.816061583E0,1.120720897E-2,-7.765797433E-3,-5.057413504E-2,5.237988428E-2
6.826003292E0,1.750611886E-2,5.552404560E-3,-4.047835991E-2,4.444987081E-2
6.835943292E0,3.208433837E-2,-9.432416409E-3,-2.114082128E-2,3.956399338E-2
6.845884292E0,5.943686515E-2,-3.154464066E-2,-8.027926087E-4,6.729375728E-2
6.855825292E0,9.543210268E-2,-4.248438403E-2,2.489149570E-2,1.073861987E-1
6.865766292E0,1.172545776E-1,-4.743653536E-2,5.892110243E-2,1.395369383E-1
6.875707292E0,1.301159859E-1,-5.860362947E-2,9.497857094E-2,1.714219476E-1
6.885648292E0,1.415244341E-1,-7.128000259E-2,1.228623986E-1,2.005122770E-1
6.895588292E0,1.531016678E-1,-8.504614234E-2,1.435572356E-1,2.264545140E-1
6.905529292E0,1.505386382E-1,-8.344265074E-2,1.564157754E-1,2.325735418E-1
6.915470292E0,1.438650936E-1,-8.092650771E-2,1.646625698E-1,2.331523680E-1
6.925411292E0,1.325541139E-1,-8.030705899E-2,1.672120243E-1,2.279905215E-1
6.935352292E0,1.211843565E-1,-7.175859064E-2,1.743924916E-1,2.241599534E-1
6.945293292E0,1.073739976E-1,-7.052128762E-2,1.773288846E-1,2.189702278E-1
6.955234292E0,9.490481019E-2,-6.314246356E-2,1.758431196E-1,2.095583366E-1
6.965174292E0,8.215253055E-2,-5.853226781E-2,1.775619239E-1,2.042138621E-1
6.975115292E0,8.105475456E-2,-5.804133415E-2,1.712038368E-1,1.981146725E-1
6.985056292E0,8.534004539E-2,-5.060951412E-2,1.638351381E-1,1.915364162E-1
6.994997292E0,7.588937879E-2,-5.142377317E-2,1.538758278E-1,1.791127372E-1
7.004938292E0,6.844025105E-2,-6.178453192E-2,1.447025687E-1,1.715815541E-1
7.014879292E0,6.852605194E-2,-6.938701868E-2,1.396754086E-1,1.703513954E-1
7.024820292E0,7.517623156E-2,-6.894227117E-2,1.369459331E-1,1.707591612E-1
7.034760292E0,8.159764111E-2,-7.346325368E-2,1.373342276E-1,1.758286516E-1
7.044701292E0,9.026916325E-2,-7.999252528E-2,1.388394386E-1,1.839122498E-1
7.054642292E0,9.100855142E-2,-8.543428779E-2,1.319901645E-1,1.816672163E-1
7.064583292E0,8.407394588E-2,-7.598406076E-2,1.239599288E-1,1.679525820E-1
7.074524292E0,8.239303529E-2,-4.951331764E-2,1.101115495E-1,1.461668027E-1
7.084465292E0,7.845741510E-2,-3.176920861E-2,9.137408435E-2,1.245554972E-1
7.094405292E0,5.787277967E-2,-2.219008468E-2,6.687033921E-2,9.117730393E-2
7.104346292E0,3.164570406E-2,-1.774873212E-2,3.822058439E-2,5.269991602E-2
7.114287292E0,9.703971446E-3,-6.957235746E-3,1.470914576E-2,1.894542584E-2
7.124228292E0,-1.120317448E-2,-6.648842245E-3,-7.359405048E-3,1.496258882E-2
7.134169292E0,-2.279707603E-2,-1.469625533E-2,-2.316670120E-2,3.567047295E-2
7.144110292E0,-2.832126990E-2,-2.377044410E-2,-3.029491939E-2,4.780073725E-2
7.154051292E0,-2.214716747E-2,-2.989291213E-2,-3.268553689E-2,4.952199052E-2
7.163991292E0,-1.475663017E-2,-3.242478147E-2,-2.779304050E-2,4.518382108E-2
7.173932292E0,-1.620824449E-2,-2.139477804E-2,-2.740922198E-2,3.836286181E-2
7.183873292E0,-1.598533615E-2,-1.265668031E-2,-3.267934918E-2,3.851833838E-2
7.193814292E0,-2.352845483E-2,-7.178139407E-3,-3.874598816E-2,4.589515737E-2
7.203755292E0,-2.332738601E-2,-9.397085756E-3,-4.094602540E-2,4.805256658E-2
7.213696292E0,-1.795559749E-2,-7.509689312E-3,-4.468090087E-2,4.873583710E-2
7.223636292E0,-9.530421346E-3,6.271369755E-3,-3.878572583E-2,4.042884537E-2
7.233577292E0,-8.799415664E-4,1.063389331E-2,-2.930140868E-2,3.118375434E-2
7.243518292E0,4.311624914E-3,3.136829007E-3,-1.755367406E-2,1.834560652E-2
7.253459292E0,1.333929226E-2,-9.519259445E-3,-1.672837697E-2,2.341776280E-2
7.263400292E0,1.419629809E-2,-2.302947454E-2,-1.868899725E-2,3.288115259E-2
7.273341292E0,1.172090136E-2,-3.599845245E-2,-1.834612712E-2,4.206956724E-2
7.283282292E0,4.782034550E-3,-3.976069763E-2,-2.093285508E-2,4.518811074E-2
7.293222292E0,-1.266408595E-3,-3.756696358E-2,-2.052292228E-2,4.282605378E-2
7.303163292E0,-1.022022311E-2,-3.010451794E-2,-1.504639816E-2,3.517284546E-2
7.313104292E0,-1.653680392E-2,-2.439084649E-2,-1.256097294E-2,3.203369035E-2
7.323045292E0,-1.649445854E-2,-2.151596546E-2,-1.262835227E-2,2.990784535E-2
7.332986292E0,-1.586701907E-2,-1.907038502E-2,-1.574078761E-2,2.938050840E-2
7.342927292E0,-1.937253773E-2,-7.868595421E-3,-1.465208828E-2,2.553220913E-2
7.352868292E0,-2.238735370E-2,1.689198660E-3,-1.695214212E-2,2.813222566E-2
7.362808292E0,-1.733293943E-2,7.606210187E-3,-2.065846324E-2,2.801887446E-2
7.372749292E0,-1.452657580E-2,8.664029650E-3,-1.795940846E-2,2.467037022E-2
7.382690292E0,-1.373268757E-2,6.299941801E-3,-1.244213711E-2,1.957249985E-2
7.392631292E0,-8.292595856E-3,2.570656361E-4,-5.673549604E-4,8.315955773E-3
7.402572292E0,6.030417047E-3,-1.098600123E-2,8.581136353E-3,1.518861593E-2
7.412513292E0,1.537089050E-2,-2.417126298E-2,2.271323092E-2,3.655687470E-2
7.422453292E0,2.291695774E-2,-3.183051571E-2,3.460690752E-2,5.230685166E-2
7.432394292E0,3.431426361E-2,-4.548796266E-2,4.743517935E-2,7.413986562E-2
7.442335292E0,5.110789090E-2,-4.948297143E-2,6.424984336E-2,9.585730721E-2
7.452276292E0,7.190699875E-2,-4.742269963E-2,8.255054057E-2,1.193068341E-1
7.462217292E0,9.269270301E-2,-4.915695265E-2,9.611401707E-2,1.422893090E-1
7.472158292E0,1.092611924E-1,-5.987977609E-2,1.042562649E-1,1.624591164E-1
7.482098292E0,1.179340482E-1,-6.840375066E-2,1.085109264E-1,1.742473356E-1
7.492039292E0,1.176152378E-1,-7.538464665E-2,1.128298044E-1,1.795738118E-1
7.501980292E0,1.122425795E-1,-8.336587250E-2,1.149904281E-1,1.810277987E-1
7.511921292E0,1.061491221E-1,-8.890356123E-2,1.163441911E-1,1.808520117E-1
7.521862292E0,9.937563539E-2,-9.558755904E-2,1.046715528E-1,1.731145064E-1
7.531803292E0,9.534487128E-2,-9.216166288E-2,9.136793762E-2,1.610357619E-1
7.541744292E0,8.487385511E-2,-7.911670208E-2,7.651096582E-2,1.389854371E-1
7.551684292E0,7.014282048E-2,-5.902196839E-2,5.378589779E-2,1.062851392E-1
7.561625292E0,4.606252164E-2,-2.597373910E-2,3.040574118E-2,6.099918130E-2
7.571566292E0,1.461860072E-2,9.375081398E-3,4.717466421E-3,1.799583640E-2
7.581507292E0,-1.238238998E-2,2.393378317E-2,-1.438805088E-2,3.054775879E-2
7.591448292E0,-3.742416576E-2,2.393193357E-2,-2.849407494E-2,5.277516398E-2
7.601389292E0,-3.894802928E-2,2.283604257E-2,-2.460293099E-2,5.141729318E-2
7.611330292E0,-3.162219748E-2,1.128198486E-2,-1.205498911E-2,3.567308955E-2
7.621270292E0,-1.309485175E-2,-7.057075854E-3,1.190334000E-2,1.905169192E-2
7.631211292E0,9.263450280E-3,-2.377906442E-2,3.776875883E-2,4.558217370E-2
7.641152292E0,2.971705981E-2,-2.960872278E-2,6.903000921E-2,8.077699103E-2
7.651093292E0,5.350256339E-2,-3.161053732E-2,8.575131744E-2,1.059010803E-1
7.661034292E0,6.797205657E-2,-3.956672922E-2,9.131386131E-2,1.205153426E-1
7.670975292E0,7.186789811E-2,-5.305817723E-2,8.976193517E-2,1.266387380E-1
7.680915292E0,6.653251499E-2,-5.271569267E-2,8.091278374E-2,1.172706203E-1
7.690856292E0,5.636870861E-2,-3.970378265E-2,6.661465764E-2,9.587144663E-2
7.700797292E0,4.144355655E-2,-2.982824668E-2,4.822233319E-2,7.023308407E-2
7.710738292E0,1.842112653E-2,-2.756383829E-2,2.950603887E-2,4.438140843E-2
7.720679292E0,-7.901182980E-4,-2.870154008E-2,1.030225027E-2,3.050473817E-2
7.730620292E0,-1.997595653E-2,-2.868189663E-2,3.710840829E-4,3.495465258E-2
7.740560292E0,-2.384180203E-2,-2.514708228E-2,-5.934748799E-3,3.515719720E-2
7.750501292E0,-2.527806722E-2,-1.940812171E-2,-7.563582622E-3,3.275459742E-2
7.760442292E0,-2.979132533E-2,-2.603033744E-2,-5.186445080E-3,3.989988402E-2
7.770383292E0,-2.600196563E-2,-3.492593393E-2,-8.427793160E-3,4.435031877E-2
7.780324292E0,-1.899439096E-2,-3.025101684E-2,-3.872455796E-3,3.592919178E-2
7.790265292E0,-1.177262235E-2,-1.441960316E-2,3.688850207E-3,1.897701790E-2
7.800206292E0,-1.059630420E-2,-2.739777789E-3,5.341075361E-3,1.217846998E-2
7.810146292E0,-1.018069778E-2,7.821565494E-3,3.099803347E-3,1.320728113E-2
7.820087292E0,-1.123344526E-2,2.382956073E-2,3.529104870E-3,2.657993299E-2
7.830028667E0,-1.312214229E-2,4.177002609E-2,-4.166513681E-3,4.398051312E-2
7.839969667E0,-1.886445098E-2,3.922137991E-2,-7.863514125E-3,4.422690365E-2
7.849910667E0,-2.914405428E-2,2.673310041E-2,-1.716526970E-2,4.311242329E-2
7.859851667E0,-3.333773464E-2,2.006800845E-2,-2.300478332E-2,4.520342431E-2
7.869791667E0,-3.570352495E-2,6.438807119E-3,-2.234647796E-2,4.260944740E-2
7.879732667E0,-3.709555790E-2,-7.041581441E-3,-2.769037709E-2,4.682329835E-2
7.889673667E0,-3.038940765E-2,-8.431448601E-3,-2.710199542E-2,4.158273174E-2
7.899614667E0,-2.726152353E-2,-1.073694695E-2,-2.922000736E-2,4.137972360E-2
7.909555667E0,-3.254843131E-2,-1.009432599E-2,-2.746631578E-2,4.376864517E-2
7.919496667E0,-3.260409087E-2,-1.983136404E-3,-2.678481303E-2,4.224199073E-2
7.929436667E0,-3.090576269E-2,1.890052482E-2,-2.250514366E-2,4.264830005E-2
7.939377667E0,-3.141628951E-2,3.586805612E-2,-1.731863804E-2,5.072904414E-2
7.949318667E0,-2.927389555E-2,3.747285157E-2,-1.104970556E-2,4.881876236E-2
7.959259667E0,-2.507275902E-2,3.465069830E-2,-2.298558131E-3,4.283220176E-2
7.969200667E0,-1.967627741E-2,3.052575514E-2,1.563824713E-2,3.954152745E-2
7.979141667E0,-1.533186343E-2,3.325176612E-2,3.143665195E-2,4.825980803E-2
7.989082667E0,-1.271891035E-2,2.953781374E-2,4.654616863E-2,5.657560371E-2
7.999022667E0,-1.815442182E-2,2.297685109E-2,5.402086303E-2,6.144731369E-2
8.008963667E0,-1.918138936E-2,2.142651938E-2,6.426762789E-2,7.040844712E-2
8.018904667E0,-2.918022685E-2,2.108963020E-2,6.665062159E-2,7.575330686E-2
8.028845667E0,-3.372902423E-2,1.285591256E-2,5.578850582E-2,6.644756538E-2
8.038786667E0,-4.165725410E-2,1.961102150E-2,3.802708536E-2,5.971581202E-2
8.048727667E0,-4.723310098E-2,7.557372097E-3,3.083906882E-2,5.691333646E-2
8.058667667E0,-4.736439511E-2,8.235146292E-3,2.701663412E-2,5.514618825E-2
8.068608667E0,-4.298919812E-2,1.572985761E-2,2.941218950E-2,5.441117961E-2
8.078549667E0,-3.767246380E-2,1.412796509E-2,3.423970193E-2,5.283153523E-2
8.088490667E0,-2.894481085E-2,5.091956817E-3,4.245774448E-2,5.163710067E-2
8.098431667E0,-2.250528708E-2,-7.147665136E-3,4.849513248E-2,5.393843655E-2
8.108372667E0,-1.089556981E-2,-1.330401655E-2,5.184738338E-2,5.462473305E-2
8.118312667E0,4.947575741E-3,-2.022477239E-2,4.884520173E-2,5.309777449E-2
8.128253667E0,1.359173842E-2,-3.084174544E-2,4.719729349E-2,5.799597510E-2
8.138194667E0,2.154020779E-2,-3.409799188E-2,4.164700210E-2,5.797522217E-2
8.148135667E0,3.170794249E-2,-2.280821465E-2,3.805760667E-2,5.453429836E-2
8.158076667E0,4.735694453E-2,-8.851919323E-3,2.663557790E-2,5.504989265E-2
8.168017667E0,5.788962916E-2,-5.091824569E-3,1.656042412E-2,6.042667861E-2
8.177957667E0,6.155200675E-2,-1.613542065E-2,2.563116606E-3,6.368336440E-2
8.187898667E0,5.647640675E-2,-2.322260290E-2,-5.815572571E-3,6.134080770E-2
8.197839667E0,5.411311612E-2,-2.844079956E-2,-1.674491912E-2,6.338375764E-2
8.207780667E0,5.596548691E-2,-2.936154604E-2,-3.129144385E-2,7.052227003E-2
8.217721667E0,5.388795584E-2,-3.694463149E-2,-4.458248243E-2,7.909750515E-2
8.227662667E0,4.668698087E-2,-4.329876974E-2,-5.542103201E-2,8.441533293E-2
8.237603667E0,3.800427914E-2,-4.312406480E-2,-5.438772589E-2,7.913302045E-2
8.247543667E0,3.258179873E-2,-3.800289333E-2,-5.281843990E-2,7.277074346E-2
8.257484667E0,2.888639830E-2,-3.542654961E-2,-4.518422484E-2,6.427346730E-2
8.267425667E0,2.406401746E-2,-2.849754877E-2,-3.733716160E-2,5.277547592E-2
8.277366667E0,3.051499277E-2,-3.758824989E-2,-2.214276232E-2,5.323855029E-2
8.287307667E0,4.251400754E-2,-4.310667515E-2,-5.701545626E-3,6.081228414E-2
8.297248667E0,6.035558879E-2,-5.567653477E-2,2.085603029E-2,8.472099871E-2
8.307188667E0,8.574214578E-2,-7.178641111E-2,3.104231134E-2,1.160544246E-1
8.317129667E0,1.133823022E-1,-9.541850537E-2,3.610950708E-2,1.525258474E-1
8.327070667E0,1.352296770E-1,-1.075964272E-1,3.701623902E-2,1.767321664E-1
8.337011667E0,1.471518576E-1,-1.060810909E-1,4.204775020E-2,1.862119232E-1
8.346952667E0,1.481286883E-1,-9.304027259E-2,4.603073001E-2,1.808795973E-1
8.356893667E0,1.340181828E-1,-8.931877464E-2,4.005859047E-2,1.659620664E-1
8.366833667E0,1.158411950E-1,-9.088074416E-2,2.992138639E-2,1.502457370E-1
8.376774667E0,9.250311553E-2,-7.835189998E-2,1.844449341E-2,1.226215558E-1
8.386715667E0,6.602420658E-2,-6.784045696E-2,1.416189410E-2,9.571876880E-2
8.396656667E0,5.091422796E-2,-5.626343191E-2,3.727895441E-3,7.597189996E-2
8.406597667E0,3.715059161E-2,-4.407046363E-2,3.573535942E-4,5.764113048E-2
8.416538667E0,2.450190857E-2,-3.807915002E-2,-4.384404980E-3,4.549272686E-2
8.426479667E0,1.233175211E-2,-3.792658821E-2,-7.295595482E-3,4.054286517E-2
8.436419667E0,7.744456176E-3,-3.843764961E-2,-2.404700033E-3,3.928373825E-2
8.446360667E0,5.322747864E-3,-3.763324395E-2,6.063249893E-3,3.848838389E-2
8.456301667E0,1.223791204E-2,-4.030146450E-2,1.373182237E-2,4.430053586E-2
8.466242667E0,2.005979046E-2,-5.068812892E-2,1.792665757E-2,5.738507348E-2
8.476183667E0,2.852251567E-2,-5.877960846E-2,1.923027448E-2,6.810565121E-2
8.486124667E0,2.814688720E-2,-6.656092405E-2,2.527930401E-2,7.656139420E-2
8.496064667E0,3.271074593E-2,-7.700052112E-2,2.797602117E-2,8.821411969E-2
8.506005667E0,3.606686369E-2,-7.968205214E-2,2.672140673E-2,9.145535340E-2
8.515946667E0,3.483248875E-2,-9.304846078E-2,1.042232662E-2,9.989966576E-2
8.525887667E0,4.000235721E-2,-8.406545222E-2,-8.057154715E-3,9.344574138E-2
8.535828667E0,4.462320730E-2,-7.111742347E-2,-1.969889738E-2,8.623784036E-2
8.545769667E0,3.912116215E-2,-5.460871756E-2,-2.942467481E-2,7.333749961E-2
8.555709667E0,2.717901580E-2,-2.858271077E-2,-3.826290742E-2,5.495198212E-2
8.565650667E0,8.622528054E-3,-1.233178936E-2,-4.352420196E-2,4.605189654E-2
8.575591667E0,-8.282419294E-3,-6.748668384E-4,-4.937996343E-2,5.007429183E-2
8.585532667E0,-1.936758868E-2,8.691782132E-3,-5.481278151E-2,5.878002709E-2
8.595473667E0,-2.758423984E-2,1.914735325E-2,-5.790471286E-2,6.693629206E-2
8.605414667E0,-2.818863094E-2,2.011299133E-2,-5.316975713E-2,6.345198506E-2
8.615354667E0,-2.445141599E-2,2.072818205E-2,-4.704076052E-2,5.692418137E-2
8.625295667E0,-1.572067849E-2,2.188147046E-2,-3.379356116E-2,4.321970913E-2
8.635236667E0,-5.236612167E-3,1.791921817E-2,-2.173396759E-2,2.865110528E-2
8.645177667E0,-1.315424801E-3,1.276936010E-2,-7.567562629E-3,1.490150676E-2
8.655118667E0,6.505480036E-3,8.268883452E-3,3.198531922E-3,1.099664997E-2
8.665059667E0,1.875912026E-2,2.871049801E-3,1.286037639E-2,2.292458943E-2
8.674999667E0,2.864717133E-2,-1.432657987E-2,2.131032199E-2,3.847130280E-2
8.684940667E0,5.885620788E-2,-3.684919700E-2,2.390157618E-2,7.343842229E-2
8.694881667E0,8.436635882E-2,-7.554706186E-2,1.743568853E-2,1.145820417E-1
8.704822667E0,8.715249598E-2,-1.106303930E-1,8.360301144E-3,1.410834365E-1
8.714763667E0,6.308577210E-2,-1.390812099E-1,-8.958501741E-3,1.529825230E-1
8.724704667E0,3.318968043E-2,-1.318715513E-1,-1.139745209E-2,1.364608473E-1
8.734644667E0,9.602064267E-3,-9.977006912E-2,-1.208747737E-2,1.009572852E-1
8.744585667E0,-7.572856732E-3,-5.128411204E-2,-8.428961039E-3,5.252100238E-2
8.754526667E0,-1.180382073E-2,3.404435469E-3,-8.392475545E-3,1.487797064E-2
8.764467667E0,-4.096340854E-3,5.829214305E-2,-7.357866038E-3,5.889730165E-2
8.774408667E0,7.596534211E-3,1.003415883E-1,-3.319715150E-3,1.006834752E-1
8.784349667E0,2.502813190E-2,1.176938564E-1,-1.295803674E-2,1.210213284E-1
8.794289667E0,3.363307193E-2,1.151816994E-1,-1.665503718E-2,1.211420557E-1
8.804230667E0,2.821436338E-2,1.014644280E-1,-1.479131263E-2,1.063478415E-1
8.814171667E0,2.143395506E-2,7.560966164E-2,-1.288553467E-3,7.859959117E-2
8.824112667E0,1.897077262E-2,3.815615177E-2,7.291574497E-3,4.323134500E-2
8.834053292E0,1.726155542E-2,3.765688045E-3,1.722543128E-2,2.467503160E-2
8.843994292E0,1.774806902E-2,-2.545987442E-2,2.708543278E-2,4.119247296E-2
8.853935292E0,2.142988890E-2,-4.850207642E-2,2.954406291E-2,6.070043829E-2
8.863875292E0,1.752961800E-2,-5.983594805E-2,1.692354865E-2,6.460676965E-2
8.873816292E0,6.341676693E-3,-5.787719414E-2,-3.851504298E-3,5.835084018E-2
8.883757292E0,-1.524765138E-2,-4.400449991E-2,-3.781598434E-2,5.999112898E-2
8.893698292E0,-4.382896051E-2,-1.091871597E-2,-7.251803577E-2,8.543454600E-2
8.903639292E0,-6.740921736E-2,1.753435843E-2,-1.098812222E-1,1.300974224E-1
8.913580292E0,-9.352710098E-2,5.112134665E-2,-1.360281408E-1,1.728130950E-1
8.923520292E0,-1.127521694E-1,7.426497340E-2,-1.494526267E-1,2.014061211E-1
8.933461292E0,-1.218178421E-1,8.978401124E-2,-1.570932418E-1,2.181262065E-1
8.943402292E0,-1.104516611E-1,7.984208316E-2,-1.551974714E-1,2.065443846E-1
8.953343292E0,-8.413696289E-2,5.877168104E-2,-1.527673453E-1,1.840407586E-1
8.963284292E0,-4.878016934E-2,3.495839983E-2,-1.478429586E-1,1.595591898E-1
8.973225292E0,-2.302739955E-2,1.630268991E-2,-1.388422698E-1,1.416799728E-1
8.983165292E0,-1.092202216E-2,5.784459412E-3,-1.291594058E-1,1.297493840E-1
8.993106292E0,-1.132469252E-2,9.087044746E-3,-1.298954934E-1,1.307044844E-1
9.003047292E0,-2.803017199E-2,1.469878573E-2,-1.442402750E-1,1.476719397E-1
9.012988292E0,-4.697616398E-2,2.857571840E-2,-1.650393009E-1,1.739577607E-1
9.022929292E0,-6.124187261E-2,4.923290014E-2,-1.812414229E-1,1.975421443E-1
9.032870292E0,-6.827767193E-2,7.245007157E-2,-1.888551414E-1,2.134879804E-1
9.042810292E0,-6.455522776E-2,6.707826257E-2,-2.011426538E-1,2.216421393E-1
9.052751292E0,-4.494158179E-2,3.719546646E-2,-2.207456529E-1,2.283240937E-1
9.062692292E0,-2.226244099E-2,5.947466474E-3,-2.319782972E-1,2.331199670E-1
9.072633292E0,-8.819868788E-3,-2.296381071E-2,-2.313205004E-1,2.326248065E-1
9.082574292E0,5.699975416E-3,-3.656575829E-2,-2.152232677E-1,2.183817743E-1
9.092515292E0,1.652172953E-2,-3.216088936E-2,-1.891221553E-1,1.925473448E-1
9.102455292E0,-3.326423233E-3,-1.810337044E-2,-1.662611663E-1,1.672769337E-1
9.112396292E0,-3.142889589E-2,1.556431316E-2,-1.326736361E-1,1.372308896E-1
9.122337292E0,-5.230609328E-2,5.186222866E-2,-1.000919193E-1,1.242739332E-1
9.132278292E0,-5.301449448E-2,6.402355433E-2,-7.454022020E-2,1.116503317E-1
9.142219292E0,-3.770085797E-2,4.826723784E-2,-7.537251711E-2,9.711898515E-2
9.152160292E0,-1.079254597E-2,3.710273281E-2,-8.453644812E-2,9.294892625E-2
9.162100292E0,5.224670283E-3,3.874675930E-2,-8.285975456E-2,9.162067158E-2
9.172041292E0,1.418746426E-3,5.963526294E-2,-6.963662803E-2,9.169316981E-2
9.181982292E0,-2.388854325E-2,9.169208258E-2,-4.522835836E-2,1.049938327E-1
9.191923292E0,-7.419112325E-2,1.119401008E-1,-2.251345851E-2,1.361681488E-1
9.201864292E0,-1.322876215E-1,1.111948937E-1,8.850088343E-3,1.730394269E-1
9.211805292E0,-1.890550256E-1,8.199332654E-2,3.137643635E-2,2.084446906E-1
9.221745292E0,-2.381776720E-1,3.053817898E-2,5.846261606E-2,2.471417838E-1
9.231686292E0,-2.583450079E-1,-7.436100394E-3,8.216474950E-2,2.711982388E-1
9.241627292E0,-2.371315211E-1,-9.533838369E-3,9.889268875E-2,2.571031238E-1
9.251568292E0,-2.152315527E-1,-3.653312568E-3,1.000133455E-1,2.373618277E-1
9.261509292E0,-1.943365484E-1,1.732210442E-2,8.570851386E-2,2.131025544E-1
9.271450292E0,-1.902059764E-1,4.718599468E-2,6.822166592E-2,2.075066920E-1
9.281390292E0,-1.857327074E-1,7.499914616E-2,5.094279349E-2,2.066801363E-1
9.291331292E0,-1.700703949E-1,8.900417387E-2,3.490230814E-2,1.950995984E-1
9.301272292E0,-1.506433189E-1,9.511382878E-2,3.379131481E-2,1.813336784E-1
9.311213292E0,-1.278724968E-1,8.707693964E-2,4.090302065E-2,1.600213297E-1
9.321154292E0,-1.080822200E-1,6.697151065E-2,4.957109690E-2,1.364706678E-1
9.331095292E0,-8.522963524E-2,3.919394314E-2,5.366303772E-2,1.080739447E-1
9.341035292E0,-6.529209763E-2,2.768519893E-2,5.894783512E-2,9.221917110E-2
9.350976292E0,-5.626691878E-2,1.471320819E-2,6.225547940E-2,8.519500783E-2
9.360917292E0,-5.320895463E-2,1.431741007E-2,6.980895251E-2,8.893520638E-2
9.370858292E0,-5.063660815E-2,2.972885594E-2,7.404816896E-2,9.450398027E-2
9.380799292E0,-4.975168779E-2,4.548701271E-2,7.315246761E-2,9.947654136E-2
9.390740292E0,-5.038205907E-2,6.418133527E-2,5.887259543E-2,1.006159936E-1
9.400680292E0,-6.949321181E-2,8.734415472E-2,4.197235405E-2,1.192475843E-1
9.410621292E0,-9.980131686E-2,9.393840283E-2,2.037731558E-2,1.385639252E-1
9.420562292E0,-1.322181374E-1,7.513732463E-2,-4.818824586E-3,1.521527998E-1
9.430503292E0,-1.463938802E-1,3.793456778E-2,-3.134816885E-2,1.544438645E-1
9.440444292E0,-1.383371949E-1,1.205783430E-2,-4.302549362E-2,1.453745644E-1
9.450385292E0,-1.045227647E-1,1.351484936E-2,-4.070481658E-2,1.129802708E-1
9.460325292E0,-5.918862298E-2,3.865445033E-2,-2.217748575E-2,7.408981370E-2
9.470266292E0,-1.450504176E-2,7.368460298E-2,6.824869663E-3,7.540819450E-2
9.480207292E0,2.121088095E-2,9.209378064E-2,3.482207656E-2,1.007161502E-1
9.490148292E0,6.210637838E-2,8.740634471E-2,6.447957456E-2,1.251186911E-1
9.500089292E0,1.056985557E-1,6.673859060E-2,8.545427024E-2,1.514221135E-1
9.510030292E0,1.270698756E-1,3.413084894E-2,8.739278466E-2,1.579530530E-1
9.519970292E0,1.256911606E-1,-7.701438153E-4,8.080412447E-2,1.494261272E-1
9.529911292E0,1.036303416E-1,-1.874222048E-2,6.086158007E-2,1.216332621E-1
9.539852292E0,6.988067925E-2,-1.559600327E-2,1.878299564E-2,7.402260179E-2
9.549793292E0,3.843327612E-2,2.762497030E-2,-2.944871597E-2,5.574479859E-2
9.559734292E0,-3.182598739E-4,9.158860147E-2,-6.473232806E-2,1.121554613E-1
9.569675292E0,-3.033128753E-2,1.654186100E-1,-1.011739597E-1,1.962637859E-1
9.579615292E0,-3.625650133E-4,5.737163499E-2,2.812789753E-3,5.744168992E-2
9.589556292E0,1.034439951E-1,3.440719843E-2,2.848033607E-2,1.126749527E-1
9.599497292E0,1.599586308E-1,1.133327559E-1,-1.654457748E-1,2.565216979E-1
9.609438292E0,5.881524459E-2,1.598459333E-1,-2.100664973E-1,2.704401758E-1
9.619379292E0,5.828219000E-3,6.906451285E-2,-1.168489009E-1,1.358585320E-1
9.629320292E0,2.116083726E-2,1.386824697E-1,-3.117606975E-2,1.437099710E-1
9.639260292E0,2.553464100E-2,1.448163986E-1,1.629381441E-2,1.479503146E-1
9.649201292E0,5.913947150E-2,1.699371934E-1,4.147402942E-3,1.799814650E-1
9.659142292E0,1.048914194E-1,2.369943857E-1,2.581477910E-2,2.604514380E-1
9.669083292E0,1.205241755E-1,2.269364297E-1,4.274182767E-2,2.604862450E-1
9.679024292E0,1.253839135E-1,2.277026176E-1,4.520285502E-2,2.638425780E-1
9.688965292E0,1.254369169E-1,1.976818740E-1,3.680990264E-2,2.369968616E-1
9.698905292E0,1.125579625E-1,1.428648382E-1,2.617920190E-2,1.837525715E-1
9.708846292E0,1.057442650E-1,8.226753771E-2,1.627464034E-2,1.349617030E-1
9.718787292E0,8.822277188E-2,2.201664075E-2,6.336141378E-3,9.114898045E-2
9.728728292E0,6.659470499E-2,-1.894836873E-2,1.035511866E-2,7.000802734E-2
9.738669292E0,5.056457967E-2,-4.614399374E-2,1.957713999E-2,7.119908205E-2
9.748609292E0,3.835957870E-2,-5.486877635E-2,3.009556048E-2,7.340151672E-2
9.758550292E0,3.123094700E-2,-5.579214543E-2,3.576485068E-2,7.326158670E-2
9.768491292E0,2.855766751E-2,-5.916104466E-2,3.585779294E-2,7.484217323E-2
9.778432292E0,1.991542056E-2,-6.768155843E-2,2.936828509E-2,7.641932672E-2
9.788373292E0,1.423676219E-2,-8.334600925E-2,1.038527116E-2,8.518859380E-2
9.798314292E0,7.795905694E-3,-9.637807310E-2,-3.570350120E-3,9.675875423E-2
9.808254292E0,9.255850688E-3,-1.002764106E-1,-2.287347429E-2,1.032677351E-1
9.818195292E0,4.563969094E-3,-9.044794738E-2,-3.701540455E-2,9.783558235E-2
9.828136292E0,-1.122757312E-4,-7.967146486E-2,-3.887881711E-2,8.865166292E-2
9.838077292E0,9.457769804E-3,-5.756338686E-2,-3.826979548E-2,6.976797376E-2
9.848018292E0,2.084171772E-2,-4.189920425E-2,-3.534564376E-2,5.864499166E-2
9.857959292E0,2.783454955E-2,-3.348907828E-2,-3.389512375E-2,5.518296772E-2
9.867899292E0,3.303783014E-2,-2.784024924E-2,-3.270708770E-2,5.418792563E-2
9.877840292E0,2.578355186E-2,-2.097376809E-2,-2.990361117E-2,4.470924351E-2
9.887781292E0,2.179866470E-2,-1.740193740E-2,-2.485665493E-2,3.736124332E-2
9.897722292E0,1.276662480E-2,-1.604472473E-2,-2.153250575E-2,2.973329286E-2
9.907663292E0,4.829073325E-3,-8.595862426E-3,-2.510513738E-2,2.697177641E-2
9.917604292E0,-8.543506265E-3,-8.535591885E-3,-2.548698150E-2,2.820344046E-2
9.927544292E0,-2.133813128E-2,-1.089994609E-2,-2.862658165E-2,3.733103064E-2
9.937485292E0,-2.895339392E-2,-5.535241216E-3,-3.328329697E-2,4.446027184E-2
9.947426292E0,-2.973130345E-2,1.002741046E-4,-3.498239443E-2,4.591000305E-2
9.957367292E0,-3.084000014E-2,4.450016655E-3,-3.301050887E-2,4.539385368E-2
9.967308292E0,-2.722795494E-2,1.586885192E-2,-1.937352493E-2,3.699345158E-2
9.977249292E0,-1.585521549E-2,1.977076940E-2,-5.192236044E-3,2.586948968E-2
9.987189292E0,-4.804961383E-3,1.261006109E-2,6.062549539E-3,1.479377577E-2
9.997130292E0,1.390611939E-2,2.511685016E-4,8.284982294E-3,1.618901398E-2
1.000707129E1,3.069628589E-2,2.827244345E-3,1.214822987E-3,3.085013894E-2
1.001701229E1,3.731762618E-2,6.608489901E-3,-2.852218924E-3,3.800542744E-2
1.002695329E1,2.877473831E-2,1.505550463E-2,-1.336557884E-2,3.511826422E-2
1.003689429E1,7.854280062E-3,1.930929162E-2,-2.360509895E-2,3.149189029E-2
1.004683429E1,-4.809317645E-3,1.527327113E-2,-3.817578778E-2,4.139798449E-2
1.005677529E1,-1.163286809E-2,1.822352037E-2,-4.998477548E-2,5.446005963E-2
1.006671629E1,-1.731392369E-2,1.629246399E-2,-5.595105514E-2,6.079257280E-2
1.007665729E1,-2.176508307E-2,1.194142085E-2,-5.519542843E-2,6.052149777E-2
1.008659829E1,-2.229505219E-2,9.827403352E-3,-4.466928542E-2,5.088214096E-2
1.009653829E1,-2.298270538E-2,7.260312792E-3,-2.581901103E-2,3.532050706E-2
1.010647929E1,-1.657780446E-2,2.669289242E-3,-7.952396758E-3,1.857927125E-2
1.011642029E1,5.097108893E-3,-1.059108321E-2,1.101626083E-2,1.610930058E-2
1.012636129E1,1.957005821E-2,-1.625402831E-2,2.388119325E-2,3.489257809E-2
1.013630229E1,2.750848234E-2,-1.486306824E-2,2.992210165E-2,4.327770286E-2
1.014624329E1,2.778811380E-2,-1.061346382E-2,3.072051704E-2,4.276184105E-2
1.015618329E1,2.198356017E-2,-6.401494145E-3,2.691925131E-2,3.533980951E-2
1.016612429E1,1.761171594E-2,-2.983724698E-6,2.327870950E-2,2.919025288E-2
1.017606529E1,1.202159375E-2,7.333247457E-3,1.893497445E-2,2.359721365E-2
1.018600629E1,1.896152459E-2,4.259160720E-3,7.604822051E-3,2.086895262E-2
1.019594729E1,2.838466130E-2,7.302686572E-3,4.965352826E-3,2.972663716E-2
1.020588829E1,3.017590381E-2,1.130728237E-2,4.634055309E-3,3.255632464E-2
1.021582829E1,2.593430877E-2,1.236010250E-2,4.915665369E-3,2.914659965E-2
1.022576929E1,2.840306051E-2,1.376199070E-2,1.128781028E-2,3.351926156E-2
1.023571029E1,2.984141000E-2,1.518750750E-2,2.052593604E-2,3.927447243E-2
1.024565129E1,2.966351062E-2,1.496673189E-2,3.141507134E-2,4.572563431E-2
1.025559229E1,3.215136006E-2,1.279527973E-2,4.215547070E-2,5.453909467E-2
1.026553329E1,3.209996223E-2,1.846062206E-2,5.280119181E-2,6.449161185E-2
1.027547329E1,3.345724940E-2,4.450152814E-2,6.344144046E-2,8.440728590E-2
1.028541429E1,2.950512245E-2,9.023891389E-2,7.675750554E-2,1.220873805E-1
1.029535529E1,1.510873064E-2,1.150651127E-1,7.843417674E-2,1.400720314E-1
1.030529629E1,2.815312939E-3,1.069062501E-1,6.649070233E-2,1.259280977E-1
1.031523729E1,-1.125557069E-2,8.318814635E-2,4.853481427E-2,9.696692096E-2
1.032517729E1,-1.199273393E-2,5.416421965E-2,3.685072437E-2,6.660003186E-2
1.033511829E1,-5.420878995E-3,2.171779610E-2,2.614710480E-2,3.441975720E-2
1.034505929E1,5.126037635E-3,-7.741824724E-3,2.229590714E-2,2.415201000E-2
1.035500029E1,1.009058394E-2,-2.740351111E-2,2.173816413E-2,3.640494588E-2
1.036494129E1,1.182616595E-2,-3.249041364E-2,1.516175363E-2,3.775399254E-2
1.037488229E1,7.672215812E-3,-3.979710862E-2,1.595768728E-3,4.056130210E-2
1.038482229E1,1.974382438E-3,-3.330272436E-2,-1.614594460E-2,3.706293516E-2
1.039476329E1,-2.730647568E-3,-2.722173370E-2,-3.245339170E-2,4.244645869E-2
1.040470429E1,-1.429888699E-2,-2.582250908E-2,-4.239337146E-2,5.165712040E-2
1.041464529E1,-2.023166046E-2,-1.967862621E-2,-4.686916620E-2,5.471094181E-2
1.042458629E1,-1.833335869E-2,-1.664155722E-2,-4.390400276E-2,5.040451295E-2
1.043452729E1,-1.378523465E-2,-1.929828897E-2,-4.243711010E-2,4.861445222E-2
1.044446729E1,-4.164832644E-3,-2.163920738E-2,-3.489450365E-2,4.127017703E-2
1.045440829E1,4.024723079E-3,-1.966280490E-2,-2.829386853E-2,3.468958473E-2
1.046434929E1,9.820294566E-3,-1.495673321E-2,-2.226713486E-2,2.856514220E-2
1.047429029E1,1.572684757E-2,-9.818419814E-3,-1.681384072E-2,2.502879026E-2
1.048423129E1,1.051717158E-2,-8.789374493E-3,-1.239219401E-2,1.847783739E-2
1.049417229E1,2.298948355E-3,-5.747098476E-3,-8.591288701E-3,1.058888785E-2
1.050411229E1,-1.982083078E-3,-6.010725629E-4,-1.232441748E-3,2.410156471E-3
1.051405329E1,-8.470418397E-4,1.362131443E-3,3.915783949E-3,4.231577233E-3
1.052399429E1,-2.938955091E-3,3.567495383E-3,1.313458197E-2,1.392414176E-2
1.053393529E1,-4.010224249E-3,8.138844860E-4,1.725749858E-2,1.773599627E-2
1.054387629E1,-4.760170355E-3,-5.669847131E-3,2.157315239E-2,2.280805324E-2
1.055381629E1,-5.738881417E-3,-1.168733649E-2,2.657303959E-2,2.959146883E-2
1.056375729E1,-4.388392437E-3,-1.511855423E-2,2.998508140E-2,3.386641075E-2
1.057369829E1,-3.419461893E-3,-2.797737159E-2,2.866368182E-2,4.019990916E-2
1.058363929E1,-2.108121291E-3,-3.707845509E-2,2.651930414E-2,4.563474005E-2
1.059358029E1,4.819149035E-5,-4.170626402E-2,2.919223160E-2,5.090777118E-2
1.060352129E1,1.260995050E-3,-4.682805389E-2,3.874871880E-2,6.079407823E-2
1.061346129E1,5.362770986E-3,-5.082134530E-2,5.332948267E-2,7.386204826E-2
1.062340229E1,1.486120094E-2,-6.058369577E-2,6.636698544E-2,9.108137155E-2
1.063334329E1,2.262714319E-2,-6.859959662E-2,7.877075672E-2,1.068771462E-1
1.064328429E1,2.804987133E-2,-7.169020176E-2,8.461026847E-2,1.143904622E-1
1.065322529E1,2.140838839E-2,-8.227701485E-2,8.248236775E-2,1.184532281E-1
1.066316629E1,1.394834183E-2,-8.993600309E-2,7.479088753E-2,1.177994811E-1
1.067310629E1,2.493142849E-3,-8.375984430E-2,5.819075927E-2,1.020200556E-1
1.068304729E1,-3.351164283E-3,-7.550484687E-2,4.247331619E-2,8.669599063E-2
1.069298829E1,-6.298365537E-3,-6.752911210E-2,1.968445443E-2,7.062101766E-2
1.070292929E1,-4.470904358E-3,-5.651374534E-2,9.048588574E-3,5.740792065E-2
1.071287029E1,4.466714803E-3,-4.425758123E-2,-3.117710818E-3,4.459153685E-2
1.072281129E1,1.239015069E-2,-3.927534074E-2,-1.010185108E-2,4.240419341E-2
1.073275129E1,1.826869324E-2,-3.905492648E-2,-1.300983224E-2,4.503652041E-2
1.074269229E1,1.779411733E-2,-3.808260709E-2,-1.484688092E-2,4.457965284E-2
1.075263329E1,8.047625422E-3,-3.325325251E-2,-2.433666959E-2,4.198590911E-2
1.076257429E1,3.791894065E-3,-2.768777870E-2,-3.683621436E-2,4.623741167E-2
1.077251529E1,-2.236572467E-2,-2.786117978E-2,-5.138142407E-2,6.258211980E-2
1.078245529E1,-4.469153658E-2,-2.899435535E-2,-6.390201300E-2,8.319539260E-2
1.079239629E1,-6.825073063E-2,-1.781111769E-2,-6.585156918E-2,9.649780986E-2
1.080233729E1,-8.022910357E-2,-4.890259355E-3,-6.715545058E-2,1.047400508E-1
1.081227829E1,-9.665745497E-2,7.970086881E-4,-5.667086318E-2,1.120485857E-1
1.082221929E1,-1.074661613E-1,-6.273417734E-3,-4.123997688E-2,1.152782168E-1
1.083216029E1,-1.041110903E-1,-1.174856909E-2,-2.650133707E-2,1.080715914E-1
1.084210029E1,-8.726207167E-2,-1.117599010E-2,-5.070081912E-3,8.812081274E-2
1.085204129E1,-6.115546450E-2,-1.803438179E-2,1.581119560E-2,6.569036209E-2
1.086198229E1,-4.177990183E-2,-1.467054337E-2,3.633378074E-2,5.727939125E-2
1.087192329E1,-2.711808495E-2,-6.310318131E-3,4.641420022E-2,5.412475061E-2
1.088186429E1,-2.129348554E-2,-1.461234060E-3,5.257995054E-2,5.674679665E-2
1.089180529E1,-1.851535030E-2,7.055350579E-6,5.144691095E-2,5.467726120E-2
1.090174529E1,-1.733317226E-2,-1.070604194E-2,4.533841833E-2,4.970543604E-2
1.091168629E1,-8.948911913E-3,-1.267025247E-2,4.777052253E-2,5.022590114E-2
1.092162729E1,1.588186808E-2,-1.721839793E-2,5.607079715E-2,6.076710667E-2
1.093156829E1,5.481253937E-2,-2.040058002E-2,7.203173637E-2,9.278560870E-2
1.094150929E1,9.005388618E-2,-3.599471971E-2,9.500975907E-2,1.357651523E-1
1.095144929E1,1.199853495E-1,-4.367233813E-2,1.137266532E-1,1.709897916E-1
1.096139029E1,1.443015933E-1,-5.065461248E-2,1.288912296E-1,2.000044716E-1
1.097133129E1,1.530158967E-1,-4.953188449E-2,1.379181147E-1,2.118694848E-1
1.098127229E1,1.415765584E-1,-4.543727264E-2,1.388757825E-1,2.034574908E-1
1.099121329E1,1.096396372E-1,-3.253733367E-2,1.360235065E-1,1.777130340E-1
1.100115429E1,6.483301520E-2,-1.852271520E-2,1.315853447E-1,1.478550431E-1
1.101109429E1,1.870552450E-2,-1.339458209E-2,1.226817444E-1,1.248203585E-1
1.102103529E1,-1.525084488E-2,-1.283957995E-2,1.175082847E-1,1.191874157E-1
1.103097629E1,-3.465507552E-2,-5.646963604E-3,1.128251553E-1,1.181625072E-1
1.104091729E1,-4.258223996E-2,-5.614739377E-3,9.540116042E-2,1.046238685E-1
1.105085829E1,-4.459159449E-2,-1.064172201E-2,7.380372286E-2,8.688294455E-2
1.106079829E1,-4.412101582E-2,-2.325045876E-2,4.780407995E-2,6.908312333E-2
1.107073929E1,-5.067570880E-2,-3.244804963E-2,2.398681641E-2,6.477862880E-2
1.108068029E1,-5.280916393E-2,-3.417910635E-2,8.491747081E-3,6.347541945E-2
1.109062129E1,-4.765376821E-2,-2.193838730E-2,-1.048501581E-4,5.246127577E-2
1.110056229E1,-3.719660267E-2,-1.321147382E-2,-9.066653438E-3,4.050104314E-2
1.111050329E1,-2.388164587E-2,-1.623171568E-2,-1.351029240E-2,3.187992478E-2
1.112044329E1,-8.055810817E-3,-1.438215002E-2,-1.403839700E-2,2.165222662E-2
1.113038429E1,9.867744520E-3,-1.385673694E-2,-1.505234744E-2,2.271463634E-2
1.114032529E1,2.187220939E-2,-1.147599425E-3,-1.745851338E-2,2.800910954E-2
1.115026629E1,3.030726686E-2,7.525930181E-3,-1.876821369E-2,3.643371920E-2
1.116020729E1,4.124619812E-2,7.588248234E-3,-2.885759994E-2,5.090767570E-2
1.117014729E1,4.644205421E-2,1.359914988E-2,-3.829420358E-2,6.171099825E-2
1.118008829E1,5.357399955E-2,2.643745020E-2,-4.858838394E-2,7.700612479E-2
1.119002929E1,4.774007946E-2,2.979995683E-2,-5.815179646E-2,8.092455774E-2
1.119997029E1,3.770049289E-2,2.515114285E-2,-7.023802400E-2,8.358999441E-2
1.120991129E1,3.243651241E-2,8.921188302E-3,-8.045226336E-2,8.720253217E-2
1.121985229E1,3.453721479E-2,6.733668037E-3,-8.398707956E-2,9.106037021E-2
1.122979229E1,3.180674836E-2,8.329078555E-3,-8.415207267E-2,9.034718659E-2
1.123973329E1,3.018994629E-2,7.097747875E-4,-7.731919736E-2,8.300719799E-2
1.124967429E1,2.555770427E-2,-1.207404211E-2,-7.590033114E-2,8.099283306E-2
1.125961529E1,2.978174388E-2,-3.214735538E-2,-7.675015181E-2,8.837980838E-2
1.126955629E1,3.352908790E-2,-2.711725794E-2,-7.228582352E-2,8.417116903E-2
1.127949729E1,3.825140372E-2,-1.944495738E-2,-6.003608927E-2,7.379436475E-2
1.128943729E1,3.296054900E-2,-2.224782482E-2,-4.952536896E-2,6.351476734E-2
1.129937829E1,3.164148331E-2,-2.661514282E-2,-3.494349867E-2,5.413499231E-2
1.130931929E1,3.758478910E-2,-2.536850795E-2,-2.540464699E-2,5.197666453E-2
1.131926029E1,5.348172784E-2,-1.865947247E-2,-8.951905183E-3,5.734638377E-2
1.132920129E1,6.360767037E-2,-3.421406262E-3,-2.948813140E-3,6.376783867E-2
1.133914129E1,6.370514631E-2,-9.289539885E-4,-2.493146341E-3,6.376068068E-2
1.134908229E1,4.766368866E-2,5.058284150E-4,-8.942686021E-3,4.849798668E-2
1.135902329E1,3.059415892E-2,1.347062923E-2,-1.599553600E-2,3.705829979E-2
1.136896429E1,1.110679563E-2,2.070992813E-2,-1.853557490E-2,2.993041211E-2
1.137890529E1,-7.711689686E-4,1.656045578E-2,-2.689150907E-2,3.159108509E-2
1.138884629E1,-6.613633595E-3,2.892353339E-3,-3.529695049E-2,3.602749743E-2
1.139878629E1,-7.017901167E-3,-8.461235091E-3,-3.476671502E-2,3.646324052E-2
1.140872729E1,-5.382529460E-3,-9.936003014E-3,-3.183364123E-2,3.377982376E-2
1.141866829E1,4.463443067E-3,-8.807621896E-3,-3.205521405E-2,3.354151569E-2
1.142860929E1,4.357863218E-3,-6.016463041E-3,-3.175515682E-2,3.261255561E-2
1.143855029E1,2.065947047E-3,2.417768352E-3,-2.843233012E-2,2.860963364E-2
1.144849029E1,-5.761789158E-3,1.565869153E-2,-2.700430714E-2,3.174311640E-2
1.145843129E1,-8.842268027E-3,2.033919655E-2,-2.269930579E-2,3.173526592E-2
1.146837229E1,-6.739635719E-4,1.746699587E-2,-1.714513823E-2,2.448481032E-2
1.147831329E1,5.122939125E-3,1.497774012E-2,-1.486973371E-2,2.171833753E-2
1.148825429E1,1.251318585E-2,1.477838866E-2,-1.724945614E-3,1.944109125E-2
1.149819529E1,1.652097702E-2,1.045368146E-2,9.870990179E-3,2.190110922E-2
1.150813529E1,2.017899789E-2,6.287027616E-3,1.988037862E-2,2.901634240E-2
1.151807629E1,2.012866363E-2,1.211082842E-2,2.526821941E-2,3.450098806E-2
1.152801729E1,1.367260236E-2,1.184143685E-2,2.253204584E-2,2.889381892E-2
1.153795829E1,5.229849368E-3,1.253252663E-2,2.231499925E-2,2.612230349E-2
1.154789929E1,-5.181941669E-4,1.368915569E-2,2.195561491E-2,2.587876610E-2
1.155783929E1,-4.907616414E-3,1.370247081E-2,1.923173480E-2,2.411849971E-2
1.156778029E1,-5.596264265E-3,1.840063138E-3,2.042591386E-2,2.125845627E-2
1.157772129E1,7.609676104E-4,6.961321924E-3,2.442172170E-2,2.540589627E-2
1.158766229E1,8.871189319E-3,1.709238999E-2,2.718592063E-2,3.331549303E-2
1.159760329E1,1.463400386E-2,2.877301537E-2,3.286138177E-2,4.606420404E-2
1.160754429E1,2.188886888E-2,3.007999435E-2,2.995845675E-2,4.776439859E-2
1.161748429E1,2.959073149E-2,2.447989769E-2,2.560658567E-2,4.615814132E-2
1.162742529E1,3.191867471E-2,1.781186648E-2,1.741929166E-2,4.049069158E-2
1.163736629E1,2.861076035E-2,3.407360753E-3,9.868430905E-3,3.045606086E-2
1.164730729E1,1.999981701E-2,-2.330134856E-3,5.749730859E-3,2.093995258E-2
1.165724829E1,1.233523991E-2,5.788245238E-3,6.604339462E-3,1.514196904E-2
1.166718929E1,8.869903162E-3,1.751274802E-2,5.067053717E-3,2.027428318E-2
1.167712929E1,5.619514734E-3,2.166994289E-2,4.835358821E-3,2.290297067E-2
1.168707029E1,-4.058299237E-4,3.212279454E-2,6.383685395E-4,3.213169994E-2
1.169701129E1,-9.001980536E-3,3.448155895E-2,-3.169419244E-3,3.577790910E-2
1.170695229E1,-1.583476178E-2,3.592547774E-2,-3.110794118E-3,3.938345683E-2
1.171689329E1,-1.590746641E-2,3.344900161E-2,-4.366740584E-3,3.729546380E-2
1.172683329E1,-1.122471225E-2,2.745832317E-2,-3.953605425E-3,2.992632072E-2
1.173677429E1,-4.299695138E-3,1.709623076E-2,-4.446243402E-4,1.763423305E-2
1.174671529E1,-4.705553874E-3,1.215598267E-2,1.311679091E-2,1.849217012E-2
1.175665629E1,-5.407829769E-3,8.911719546E-3,3.040576540E-2,3.214302316E-2
1.176659729E1,1.631937106E-3,-6.823799340E-4,4.580672085E-2,4.584086099E-2
1.177653729E1,6.926035043E-3,-7.572243456E-3,5.734619871E-2,5.825714839E-2
1.178647829E1,1.691218838E-2,-1.048400719E-2,6.526121497E-2,6.822728708E-2
1.179641929E1,1.701924764E-2,-1.096310932E-2,6.701170653E-2,7.000295257E-2
1.180636029E1,1.002201904E-2,-6.898521446E-3,6.632492691E-2,6.743164238E-2
1.181630129E1,-3.707908560E-3,5.538023543E-4,5.902786553E-2,5.914680204E-2
1.182624229E1,-1.850554720E-2,5.433750805E-3,5.120554566E-2,5.471735403E-2
1.183618229E1,-2.985513955E-2,-2.006989671E-4,3.776137531E-2,4.813824990E-2
1.184612329E1,-3.654006496E-2,-3.847916145E-3,3.453960642E-2,5.042784169E-2
1.185606429E1,-3.769401088E-2,-4.224487115E-3,3.268604353E-2,5.007057209E-2
1.186600529E1,-3.303777054E-2,7.876237854E-3,3.895348683E-2,5.168078503E-2
1.187594629E1,-2.800279669E-2,7.514846977E-3,4.356661439E-2,5.233239376E-2
1.188588629E1,-2.101913653E-2,-7.486937102E-5,4.884960875E-2,5.317982682E-2
1.189582729E1,-1.053001080E-2,-1.387323905E-2,5.024643615E-2,5.317943432E-2
1.190576829E1,3.541845595E-3,-2.162007056E-2,5.361616239E-2,5.791946988E-2
1.191570929E1,1.177873649E-2,-2.596927993E-2,5.429446697E-2,6.132724743E-2
1.192565029E1,2.114143781E-2,-2.402788214E-2,4.994955286E-2,5.932332884E-2
1.193559129E1,2.515695244E-2,-1.997694746E-2,4.704164714E-2,5.696373628E-2
1.194553129E1,1.870510541E-2,-4.827546421E-3,4.438375309E-2,4.840561653E-2
1.195547229E1,7.081473712E-3,9.887750261E-3,3.182801604E-2,3.407253264E-2
1.196541329E1,-2.031428274E-3,1.568851061E-2,2.342963405E-2,2.827019310E-2
1.197535429E1,-1.661196910E-2,2.121030726E-2,1.403666474E-2,3.037865382E-2
1.198529529E1,-2.400809899E-2,2.567856014E-2,6.183535326E-3,3.569332398E-2
1.199523529E1,-2.287572250E-2,3.203765675E-2,4.375515506E-3,3.960877764E-2
1.200517629E1,-2.124633826E-2,3.607641533E-2,1.112129912E-2,4.331971753E-2
1.201511729E1,-1.234072819E-2,2.439472824E-2,2.145649493E-2,3.475309357E-2
1.202505829E1,-2.949907212E-3,1.983756013E-2,2.969154343E-2,3.583041300E-2
1.203499929E1,9.699308313E-3,3.998941742E-3,3.970689327E-2,4.106952020E-2
1.204494029E1,2.189501934E-2,-6.632599980E-3,4.525703192E-2,5.071076998E-2
1.205488029E1,3.113858588E-2,-6.232326385E-3,4.730606824E-2,5.697646457E-2
1.206482129E1,2.131495811E-2,-4.147218540E-3,6.545120478E-2,6.895931458E-2
1.207476229E1,4.332145676E-2,9.576849639E-3,5.093884096E-2,6.755168527E-2
1.208470329E1,6.377322227E-2,4.680141434E-2,5.873335898E-2,9.852412760E-2
1.209464429E1,6.064108014E-2,5.334000662E-2,7.115274668E-2,1.076346146E-1
1.210458429E1,5.193039402E-2,6.702176481E-2,8.183177561E-2,1.178351488E-1
1.211452529E1,4.764669761E-2,5.242444575E-2,9.494970739E-2,1.184650887E-1
1.212446629E1,5.019403249E-2,2.995185740E-2,1.060060635E-1,1.210530469E-1
1.213440729E1,6.427309662E-2,6.815646775E-3,1.087086424E-1,1.264715499E-1
1.214434829E1,7.584186643E-2,-1.735112071E-2,1.122694835E-1,1.365924120E-1
1.215428929E1,8.436823636E-2,-3.407577425E-2,1.125366017E-1,1.447191916E-1
1.216422929E1,8.473772556E-2,-3.725766391E-2,1.138688847E-1,1.467471927E-1
1.217417029E1,7.993391156E-2,-3.535164148E-2,1.167967618E-1,1.458788961E-1
1.218411129E1,7.423689961E-2,-3.769392893E-2,1.091002002E-1,1.372399477E-1
1.219405229E1,6.637471169E-2,-4.149932042E-2,1.049925387E-1,1.309627013E-1
1.220399329E1,5.932625756E-2,-3.737415001E-2,1.025048271E-1,1.241920750E-1
1.221393329E1,5.270484090E-2,-3.797735646E-2,1.009652540E-1,1.200585789E-1
1.222387429E1,5.049356446E-2,-4.234309867E-2,1.012953967E-1,1.208440956E-1
1.223381529E1,4.539494216E-2,-6.393734366E-2,9.952200204E-2,1.267016716E-1
1.224375629E1,4.647907242E-2,-7.077724487E-2,1.038874388E-1,1.340235893E-1
1.225369729E1,2.976400591E-2,-8.473300934E-2,1.017358676E-1,1.357047002E-1
1.226363729E1,2.493898198E-2,-8.290693164E-2,1.101195365E-1,1.400779228E-1
1.227357829E1,2.384602092E-2,-8.806893229E-2,1.213415638E-1,1.518174715E-1
1.228351929E1,8.703170344E-3,-1.061713398E-1,1.254757792E-1,1.645972956E-1
1.229346029E1,4.930003546E-3,-1.260544956E-1,1.257575452E-1,1.781263624E-1
1.230340129E1,4.988851771E-2,-1.825245619E-1,8.533325791E-2,2.075713005E-1
1.231334229E1,1.013288051E-1,-1.174648702E-1,8.378223330E-2,1.763093449E-1
1.232328229E1,5.259479955E-2,-1.647630185E-1,1.486392170E-1,2.280497359E-1
1.233322329E1,2.188801952E-2,-1.859764308E-1,1.550931185E-1,2.431464448E-1
1.234316429E1,3.285334259E-2,-1.572727412E-1,1.350113302E-1,2.098621370E-1
1.235310529E1,3.290261328E-2,-1.462528408E-1,1.252108961E-1,1.953208742E-1
1.236304629E1,3.931414708E-2,-1.223753542E-1,1.052794904E-1,1.661478274E-1
1.237298629E1,4.277892038E-2,-8.772576600E-2,8.748584241E-2,1.310710444E-1
1.238292729E1,3.732476011E-2,-5.778402090E-2,8.368305862E-2,1.083281362E-1
1.239286829E1,3.014301136E-2,-3.427363560E-2,7.484855503E-2,8.766749352E-2
1.240280929E1,1.310985070E-2,-1.683269814E-2,7.733532786E-2,8.022444046E-2
1.241275029E1,5.708393175E-3,-1.758717187E-2,8.187469095E-2,8.393663911E-2
1.242269129E1,8.578358218E-3,-1.111517567E-2,7.881803066E-2,8.005883659E-2
1.243263129E1,1.924698055E-2,-1.839572750E-2,7.631172985E-2,8.082282575E-2
1.244257229E1,2.302156761E-2,-2.182059176E-2,7.207787782E-2,7.874865885E-2
1.245251329E1,3.438261151E-2,-2.344645187E-2,6.111897156E-2,7.394206356E-2
1.246245429E1,4.597787187E-2,-2.105172165E-2,5.039643124E-2,7.139285655E-2
1.247239529E1,4.182733595E-2,-1.921920106E-2,5.018310994E-2,6.809734389E-2
1.248233529E1,2.794375457E-2,-2.170641348E-2,5.943339691E-2,6.916899937E-2
1.249227629E1,1.558056287E-2,-2.964236774E-2,5.222209170E-2,6.203685007E-2
1.250221729E1,9.994262829E-3,-3.451065347E-2,3.903403506E-2,5.305211009E-2
1.251215829E1,9.454173967E-3,-3.439480439E-2,3.186240792E-2,4.782883035E-2
1.252209929E1,2.155514667E-3,-2.792971209E-2,2.518239990E-2,3.766786861E-2
1.253203929E1,-1.139384974E-2,-2.453737892E-2,1.976659521E-2,3.350553779E-2
1.254198029E1,-3.025457077E-2,-2.503137104E-2,1.757356711E-2,4.302021443E-2
1.255192129E1,-3.946937621E-2,-2.270856127E-2,1.023682393E-2,4.667229347E-2
1.256186229E1,-4.440804571E-2,-2.581039444E-2,6.565756164E-3,5.178185144E-2
1.257180329E1,-3.913445398E-2,-1.623286679E-2,3.061834956E-3,4.247806830E-2
1.258174329E1,-3.667708486E-2,-1.016353164E-2,1.952689840E-3,3.810930237E-2
1.259168429E1,-3.537772968E-2,-5.574638955E-3,5.057669245E-3,3.616960568E-2
1.260162529E1,-3.989271820E-2,1.713030390E-3,1.048886217E-2,4.128413337E-2
1.261156629E1,-3.616535664E-2,3.262990154E-3,1.890471764E-2,4.093859395E-2
1.262150729E1,-2.724274062E-2,-2.948891837E-3,2.087188885E-2,3.444558932E-2
1.263144829E1,-2.176621556E-2,-1.484709606E-2,2.987204306E-2,3.983143680E-2
1.264138829E1,-1.975172013E-2,-2.140709199E-2,4.113760591E-2,5.040532368E-2
1.265132929E1,-8.374694735E-3,-3.020004928E-2,4.599867389E-2,5.566018764E-2
1.266127029E1,1.018557115E-3,-4.129454494E-2,4.937473685E-2,6.437500710E-2
1.267121129E1,3.370541963E-4,-4.645708576E-2,5.521052331E-2,7.215660958E-2
1.268115229E1,-3.317139810E-3,-4.446636140E-2,5.819506571E-2,7.331388945E-2
1.269109229E1,-4.824711068E-4,-4.036749154E-2,6.350461394E-2,7.525027005E-2
1.270103329E1,6.635022350E-3,-3.962845355E-2,5.820646137E-2,7.072785871E-2
1.271097429E1,1.188730821E-2,-3.094335459E-2,4.880336672E-2,5.899633796E-2
1.272091529E1,2.680885373E-3,-1.007507369E-2,3.931227326E-2,4.067123167E-2
1.273085629E1,-3.420150373E-3,1.331280544E-2,3.226421773E-2,3.507004368E-2
1.274079729E1,-1.159784850E-2,2.795432508E-2,1.977138966E-2,3.615054951E-2
1.275073729E1,-1.892660186E-2,4.161767289E-2,9.496647865E-3,4.669510976E-2
1.276067829E1,-2.808031999E-2,4.673879966E-2,9.051203728E-3,5.527154832E-2
1.277061929E1,-3.378428146E-2,4.052431509E-2,6.625063717E-3,5.317414086E-2
1.278056029E1,-3.282658011E-2,2.420647629E-2,9.316496551E-3,4.183700472E-2
1.279050129E1,-2.680730261E-2,8.476231014E-4,1.218152605E-2,2.945741868E-2
1.280044129E1,-2.211377397E-2,-2.013796754E-2,1.423424855E-2,3.312356514E-2
1.281038229E1,-1.214503031E-2,-2.106767707E-2,1.619593240E-2,2.921740927E-2
1.282032329E1,-6.907586474E-3,-1.503935270E-2,2.010791004E-2,2.604275190E-2
1.283026467E1,-9.541719221E-3,-1.393547188E-2,2.419373207E-2,2.950556649E-2
1.284020567E1,-1.593952067E-2,-4.974424373E-3,3.514248133E-2,3.890767548E-2
1.285014567E1,-8.586266078E-3,1.467384491E-2,4.277057573E-2,4.602573017E-2
1.286008667E1,-3.948673140E-3,2.451043762E-2,4.752634093E-2,5.362002102E-2
1.287002767E1,6.027261727E-3,2.061290108E-2,4.647812247E-2,5.119995550E-2
1.287996867E1,7.565610576E-3,6.200456526E-3,4.698215798E-2,4.798965818E-2
1.288990967E1,6.594888400E-3,1.102610491E-2,4.454217106E-2,4.635809040E-2
1.289984967E1,-6.920743035E-4,2.642334811E-2,4.490822926E-2,5.210970493E-2
1.290979067E1,-1.350933593E-2,3.134540096E-2,4.408451170E-2,5.575374866E-2
1.291973167E1,-1.512305811E-2,1.969343238E-2,4.045427591E-2,4.746668942E-2
1.292967267E1,-1.412863377E-2,7.507340983E-3,3.509945795E-2,3.857396025E-2
1.293961367E1,-1.101233438E-2,4.210276529E-3,3.277925402E-2,3.483500296E-2
1.294955467E1,-1.348721050E-2,-7.675678004E-3,2.608885989E-2,3.035538651E-2
1.295949467E1,-1.127805654E-2,-1.423709560E-2,1.748871058E-2,2.521397328E-2
1.296943567E1,-6.268650759E-3,-1.415879838E-2,1.046781987E-2,1.869071445E-2
1.297937667E1,-1.162344124E-2,-4.568077624E-3,7.831332274E-3,1.474114937E-2
1.298931767E1,-1.282159798E-2,1.121754292E-2,-4.297937267E-4,1.704146023E-2
1.299925867E1,-1.885427907E-2,2.588920668E-2,-4.715923220E-3,3.237243879E-2
1.300919867E1,-2.065244503E-2,2.674408071E-2,-8.636096492E-3,3.487623118E-2
1.301913967E1,-2.198507264E-2,2.138283662E-2,-1.104601379E-2,3.259729348E-2
1.302908067E1,-2.239626460E-2,2.071864530E-2,-1.664824039E-2,3.475656541E-2
1.303902167E1,-1.731582358E-2,1.917268708E-2,-9.856173769E-3,2.765092833E-2
1.304896267E1,-1.436530706E-2,1.183061954E-2,-2.469364554E-3,1.877294241E-2
1.305890267E1,-6.187636405E-3,5.949956365E-3,3.079495160E-3,9.119874751E-3
1.306884367E1,4.251688719E-3,-9.535526857E-3,4.505085293E-3,1.137096842E-2
1.307878467E1,1.396087278E-2,-2.498492040E-2,8.848803118E-3,2.995752881E-2
1.308872567E1,2.525853552E-2,-3.103588894E-2,8.345732465E-3,4.087629226E-2
1.309866667E1,3.124823049E-2,-2.513881400E-2,8.665069006E-3,4.103041919E-2
1.310860767E1,3.341631219E-2,-1.459163241E-2,7.955070585E-3,3.732088966E-2
1.311854767E1,2.817573585E-2,-7.997026667E-3,7.230359130E-3,3.016790711E-2
1.312848867E1,1.983338222E-2,1.779437764E-3,1.147783455E-2,2.298412789E-2
1.313842967E1,1.011542510E-2,-1.239956706E-3,1.300023962E-2,1.651864243E-2
1.314837067E1,1.446063910E-2,-3.264491912E-3,1.036317833E-2,1.808763267E-2
1.315831167E1,2.429689839E-2,-1.341807377E-2,9.857299738E-3,2.945420740E-2
1.316825167E1,3.313539922E-2,-2.758023143E-2,7.025294006E-3,4.368041441E-2
1.317819267E1,3.531771526E-2,-3.165139258E-2,1.090317266E-3,4.743775348E-2
1.318813367E1,4.058065638E-2,-2.791657485E-2,-3.286588006E-3,4.936523558E-2
1.319807467E1,3.686018661E-2,-2.702142112E-2,-1.153115835E-2,4.713595410E-2
1.320801567E1,3.684101254E-2,-2.339526080E-2,-1.669050008E-2,4.672441787E-2
1.321795567E1,3.683067113E-2,-1.106551290E-2,-1.909185387E-2,4.293533272E-2
1.322789667E1,3.723546863E-2,-1.667483361E-3,-1.892434061E-2,4.180180967E-2
1.323783767E1,3.920317069E-2,1.092569204E-3,-1.728586294E-2,4.285887722E-2
1.324777867E1,3.987961635E-2,3.473435296E-3,-1.711142622E-2,4.353446290E-2
1.325771967E1,4.177670926E-2,-5.894680507E-4,-1.008905936E-2,4.298174063E-2
1.326765967E1,4.834619537E-2,-8.574956097E-3,-1.700182632E-2,5.196101016E-2
1.327760067E1,6.032519415E-2,-1.615204476E-2,-1.440221164E-2,6.408932282E-2
1.328754167E1,6.840255857E-2,-2.427255549E-2,-1.615909860E-2,7.435847924E-2
1.329748267E1,6.883127242E-2,-2.885934152E-2,-1.273302455E-2,7.571483058E-2
1.330742367E1,5.996481329E-2,-2.810806222E-2,-1.325447205E-2,6.753904815E-2
1.331736467E1,5.790468678E-2,-2.851672284E-2,-1.083781756E-2,6.544932790E-2
1.332730467E1,5.113173649E-2,-2.810366638E-2,-6.302719936E-3,5.868555886E-2
1.333724567E1,4.955875874E-2,-2.510452084E-2,7.736318279E-3,5.609062448E-2
1.334718667E1,5.511011928E-2,-2.682066150E-2,1.682595350E-2,6.355773629E-2
1.335712767E1,5.535578728E-2,-3.034181520E-2,1.944576576E-2,6.605321144E-2
1.336706867E1,6.282436103E-2,-3.233492374E-2,2.274542302E-2,7.422803985E-2
1.337700867E1,6.077990681E-2,-3.458767012E-2,1.913665608E-2,7.250321097E-2
1.338694967E1,5.873512849E-2,-3.428540379E-2,1.758456416E-2,7.024614672E-2
1.339689067E1,4.607087374E-2,-3.055885620E-2,1.438170299E-2,5.712444731E-2
1.340683167E1,4.417577013E-2,-2.535716817E-2,1.204398088E-2,5.234063546E-2
1.341677267E1,4.850092530E-2,-1.775620505E-2,1.144233160E-2,5.290131875E-2
1.342671267E1,5.677323416E-2,-1.407837868E-2,8.430296555E-3,5.909712991E-2
1.343665367E1,6.132273003E-2,-1.442781556E-2,7.625734899E-3,6.345700051E-2
1.344659467E1,6.518378109E-2,-1.334390882E-2,7.398833521E-3,6.694570903E-2
1.345653567E1,5.826121569E-2,-1.610079221E-2,3.508836031E-3,6.054681407E-2
1.346647667E1,5.138120428E-2,-1.786380447E-2,-6.150689442E-4,5.440148870E-2
1.347641667E1,4.136708751E-2,-1.667031087E-2,-8.420725353E-4,4.460767064E-2
1.348635767E1,3.152856976E-2,-1.805861667E-2,-2.165397163E-3,3.639853420E-2
1.349629867E1,2.498821169E-2,-1.446561050E-2,5.648685619E-3,2.942060944E-2
1.350623967E1,1.933698542E-2,-8.282815106E-3,1.402832288E-2,2.528473599E-2
1.351618067E1,2.449932694E-2,-1.126689464E-2,1.810435206E-2,3.247964746E-2
1.352612167E1,2.646314166E-2,-1.335428096E-2,2.342694439E-2,3.778169412E-2
1.353606167E1,3.246903419E-2,-1.251298003E-2,2.912498266E-2,4.537705880E-2
1.354600267E1,3.338383138E-2,-1.603527740E-2,3.341959789E-2,4.988466540E-2
1.355594367E1,3.611302003E-2,-2.287211269E-2,3.155647218E-2,5.313280241E-2
1.356588467E1,2.810462937E-2,-2.370115556E-2,2.899317816E-2,4.682114209E-2
1.357582467E1,2.108599618E-2,-2.805081941E-2,2.641609684E-2,4.392354581E-2
1.358576567E1,1.568483934E-2,-2.615997568E-2,2.374228463E-2,3.865300236E-2
1.359570667E1,1.072283648E-2,-1.199195907E-2,2.309886366E-2,2.814860222E-2
1.360564767E1,-7.270012051E-3,-1.368146855E-2,2.588905767E-2,3.017082968E-2
1.361558867E1,-3.340895101E-2,-2.474207804E-2,3.823309764E-2,5.648095421E-2
1.362552967E1,-2.480268106E-2,-2.855386212E-2,2.540571615E-2,4.556255527E-2
1.363546967E1,4.616070655E-4,-2.770540118E-2,2.077412978E-2,3.463187555E-2
1.364541067E1,2.823830815E-3,-4.210777581E-2,1.489626709E-2,4.475419061E-2
1.365535167E1,2.257131506E-3,-3.122947179E-2,8.646487258E-3,3.248286152E-2
1.366529267E1,-5.282809958E-3,-2.457849495E-2,2.545451745E-3,2.526835609E-2
1.367523367E1,-1.274073496E-2,-1.192173455E-2,-4.876870662E-4,1.745542669E-2
1.368517367E1,-9.224031121E-3,-5.305643659E-3,-6.785263773E-3,1.262031732E-2
1.369511467E1,-9.350853041E-3,5.133125000E-3,-1.012814604E-2,1.470941083E-2
1.370505567E1,-9.484543465E-3,1.067969110E-2,-8.241296746E-3,1.649034077E-2
1.371499667E1,-1.144478377E-2,5.534037948E-3,-1.109798811E-2,1.687524790E-2
1.372493767E1,-1.546988543E-2,7.838204503E-3,-1.233023219E-2,2.127884938E-2
1.373487767E1,-1.347056683E-2,8.411589079E-6,-1.135245431E-3,1.351832178E-2
1.374481867E1,-3.555085044E-3,-1.543339435E-2,-1.321933232E-3,1.589263346E-2
1.375475967E1,3.050993662E-3,-1.023006160E-2,-1.475963509E-3,1.077688224E-2
1.376470067E1,-9.131216793E-4,7.054103189E-4,2.883807756E-4,1.189352089E-3
1.377464167E1,-7.334040478E-3,8.759551682E-3,4.925637506E-3,1.244105302E-2
1.378458167E1,-5.896199495E-3,1.627392694E-2,1.072680112E-2,2.036345081E-2
1.379452267E1,2.065292560E-3,2.709393948E-2,1.518356055E-2,3.112695779E-2
1.380446367E1,7.621445227E-3,3.118349053E-2,2.056554146E-2,3.812398201E-2
1.381440467E1,1.330300514E-2,3.306593373E-2,3.028577194E-2,4.677129356E-2
1.382434567E1,1.961842552E-2,2.110940591E-2,3.516441584E-2,4.546455519E-2
1.383428671E1,3.214157373E-2,1.225985121E-2,3.584395722E-2,4.968072043E-2
1.384422671E1,3.465027362E-2,7.784941699E-3,3.522876650E-2,5.002312234E-2
1.385416771E1,3.685119376E-2,4.366674460E-3,3.379876912E-2,5.019397495E-2
1.386410871E1,2.890618518E-2,1.438262756E-3,2.263799310E-2,3.674390933E-2
1.387404971E1,1.775277779E-2,3.423157614E-3,9.938139468E-3,2.063118376E-2
1.388399071E1,4.054810386E-3,9.014997631E-3,-4.614171572E-3,1.090881519E-2
1.389393071E1,-7.526294328E-3,1.315557398E-2,-1.565317810E-2,2.178844229E-2
1.390387171E1,-1.503614243E-2,1.285676751E-2,-3.062467277E-2,3.645891705E-2
1.391381271E1,-1.903912425E-2,1.372699440E-2,-4.074462503E-2,4.702173004E-2
1.392375371E1,-1.924312115E-2,1.732598990E-2,-4.070574045E-2,4.824360002E-2
1.393369471E1,-1.431114692E-2,1.770808734E-2,-3.772312030E-2,4.406153752E-2
1.394363471E1,-2.127185697E-3,1.183182187E-2,-3.005721420E-2,3.237210301E-2
1.395357571E1,6.895313039E-3,4.981288221E-3,-1.880787872E-2,2.064206569E-2
1.396351671E1,1.583820768E-2,-1.011356711E-3,-5.116301589E-3,1.667477756E-2
1.397345771E1,1.831549406E-2,-1.515586162E-3,7.829651237E-3,1.997643018E-2
1.398339871E1,2.345353179E-2,-9.981337935E-4,1.835419610E-2,2.979833785E-2
1.399333871E1,2.837125398E-2,-4.525483120E-3,2.648396790E-2,3.907439834E-2
1.400327971E1,3.076836467E-2,-9.517578408E-3,2.898494340E-2,4.332901461E-2
1.401322071E1,2.991905436E-2,-1.233960874E-2,2.740218304E-2,4.240631313E-2
1.402316171E1,2.976698801E-2,-1.214280073E-2,1.851201989E-2,3.709738623E-2
1.403310271E1,2.104921453E-2,-9.537733160E-3,6.289750338E-3,2.394992161E-2
1.404304271E1,4.236146342E-3,-8.742513135E-3,-6.061724387E-3,1.145080671E-2
1.405298371E1,-8.884518407E-3,-4.279048648E-3,-2.565279789E-2,2.748292132E-2
1.406292471E1,-1.634057052E-2,4.102718085E-3,-4.422861338E-2,4.732881556E-2
1.407286571E1,-2.900407463E-2,6.562758237E-3,-5.947768688E-2,6.649737873E-2
1.408280671E1,-3.156390414E-2,7.018425036E-3,-7.008185983E-2,7.718163908E-2
1.409274671E1,-2.929662541E-2,5.361213349E-3,-7.404299080E-2,7.980851681E-2
1.410268771E1,-2.069195174E-2,7.211843971E-3,-7.711521536E-2,8.016809840E-2
1.411262871E1,-1.226953696E-2,-2.212687396E-3,-7.357117534E-2,7.462007346E-2
1.412256971E1,-7.524848450E-3,-1.187836472E-2,-6.325009465E-2,6.479423868E-2
1.413251071E1,4.007254262E-3,-2.510472387E-2,-5.572635680E-2,6.125138439E-2
1.414245071E1,1.186810620E-2,-2.495824918E-2,-5.028338730E-2,5.737756692E-2
1.415239171E1,1.234039851E-2,-2.494089678E-2,-5.073676631E-2,5.786668491E-2
1.416233271E1,-4.529661499E-3,-2.075866796E-2,-4.648529366E-2,5.111088588E-2
1.417227371E1,-1.507697068E-2,-8.009331301E-3,-3.376378492E-2,3.783460856E-2
1.418221471E1,-2.949878760E-2,7.089992985E-3,-3.269425780E-2,4.460225289E-2
1.419215471E1,-3.613821417E-2,1.150831487E-2,-2.692974359E-2,4.651476028E-2
1.420209571E1,-4.619484395E-2,8.883768693E-3,-2.755771764E-2,5.451892107E-2
1.421203671E1,-4.742996395E-2,-1.642086310E-3,-2.536079288E-2,5.380955066E-2
1.422197771E1,-4.813357070E-2,-1.511954516E-2,-2.196685970E-2,5.502712240E-2
1.423191871E1,-4.007546231E-2,-2.644800022E-2,-1.949610189E-2,5.182313561E-2
1.424185871E1,-2.785235085E-2,-2.283675224E-2,-1.899968833E-2,4.072172463E-2
1.425179971E1,-2.393053845E-2,-1.787836477E-2,-1.421503350E-2,3.308132063E-2
1.426174071E1,-2.730902471E-2,-1.134110335E-2,-1.003892999E-2,3.122792934E-2
1.427168171E1,-2.520917729E-2,-2.788447775E-3,-8.877259679E-3,2.687161699E-2
1.428162271E1,-2.427840233E-2,3.549342975E-3,-9.638391435E-3,2.636166240E-2
1.429156371E1,-3.320077807E-2,5.330701824E-3,-7.885519415E-3,3.453823190E-2
1.430150371E1,-3.769406304E-2,3.000169527E-3,-1.022111159E-2,3.917032713E-2
1.431144471E1,-4.381063953E-2,3.201900516E-3,-4.417386837E-3,4.414903860E-2
1.432138571E1,-4.182312265E-2,2.367532346E-3,-4.561996087E-3,4.213775749E-2
1.433132671E1,-3.911814094E-2,1.796191558E-3,-6.161428988E-3,3.964112084E-2
1.434126771E1,-3.176488727E-2,1.806045300E-3,-5.551299080E-3,3.229685410E-2
1.435120771E1,-2.921532840E-2,6.673345342E-3,-1.074038632E-2,3.183433445E-2
1.436114871E1,-2.838096023E-2,7.363603218E-4,-1.529891882E-2,3.225024104E-2
1.437108971E1,-3.275308385E-2,9.646794759E-3,-1.541661005E-2,3.746327557E-2
1.438103071E1,-3.181831539E-2,1.620243303E-2,-1.448370609E-2,3.853182805E-2
1.439097171E1,-2.491827682E-2,1.591862366E-2,-7.552561350E-3,3.051826144E-2
1.440091171E1,-1.147836726E-2,1.078138687E-2,-9.264707565E-3,1.827090649E-2
1.441085271E1,-3.125979565E-3,4.514472559E-3,-1.595780626E-2,1.687613082E-2
1.442079371E1,-1.119695604E-2,5.013550981E-4,-1.868088916E-2,2.178528864E-2
1.443073471E1,-2.453626879E-2,1.225342602E-2,-1.620801911E-2,3.185709997E-2
1.444067571E1,-4.307533428E-2,1.106405817E-2,-1.270995568E-2,4.625408933E-2
1.445061571E1,-4.401659220E-2,-1.133090002E-3,-2.206201479E-2,4.924912973E-2
1.446055671E1,-5.020817369E-2,-1.761832274E-2,-3.272424638E-2,6.246712978E-2
1.447049771E1,-5.949143320E-2,-1.799300313E-2,-2.623756602E-2,6.746398044E-2
1.448043871E1,-5.935268477E-2,-7.525182329E-3,-1.613140292E-2,6.196443914E-2
1.449037971E1,-5.510247499E-2,8.301977068E-3,-4.980152473E-3,5.594646988E-2
1.450031971E1,-4.512813687E-2,1.511514187E-2,5.449051969E-3,4.790311492E-2
1.451026071E1,-3.283868358E-2,1.686711237E-2,1.713211462E-2,4.069874654E-2
1.452020171E1,-1.723069698E-2,1.278555207E-2,2.653760090E-2,3.412640505E-2
1.453014271E1,-3.078589682E-3,1.290858351E-2,3.475404531E-2,3.720151755E-2
1.454008371E1,1.228651777E-2,1.094103977E-2,3.652185202E-2,4.005634213E-2
1.455002371E1,2.716576681E-2,1.017178223E-2,2.722971514E-2,3.978569374E-2
1.455996471E1,2.458489873E-2,7.996246219E-3,8.997980505E-3,2.737372558E-2
1.456990571E1,3.817538731E-3,1.027763262E-2,-1.505040564E-2,1.862036638E-2
1.457984671E1,-2.069233172E-2,1.811877824E-2,-3.537831455E-2,4.481169331E-2
1.458978771E1,-3.999399766E-2,2.663398162E-2,-6.101642177E-2,7.766525961E-2
1.459972771E1,-6.148277596E-2,4.241720587E-2,-7.943591475E-2,1.090385970E-1
1.460966871E1,-7.779470831E-2,6.203565747E-2,-8.668669313E-2,1.319659888E-1
1.461960971E1,-9.644322842E-2,7.087069750E-2,-9.415366501E-2,1.522789043E-1
1.462955071E1,-1.021989882E-1,7.048720866E-2,-9.862603247E-2,1.585565327E-1
1.463949171E1,-1.011345237E-1,7.633391768E-2,-1.018276885E-1,1.625544125E-1
1.464943171E1,-1.043775305E-1,7.831957936E-2,-1.029854268E-1,1.662366491E-1
1.465937271E1,-1.036643386E-1,8.314841986E-2,-9.610807896E-2,1.640021880E-1
1.466931371E1,-9.797663987E-2,8.129948378E-2,-7.908814400E-2,1.498798270E-1
1.467925471E1,-7.713899761E-2,7.548660040E-2,-5.927794799E-2,1.231362128E-1
1.468919571E1,-4.215698689E-2,6.199318171E-2,-3.782743961E-2,8.397190786E-2
1.469913571E1,-5.618417636E-3,3.847001120E-2,-1.939090714E-2,4.344554820E-2
1.470907671E1,4.161945730E-2,2.619232982E-2,-8.949902840E-3,4.998317846E-2
1.471901771E1,6.612665951E-2,3.212052584E-2,-7.835369557E-3,7.393142968E-2
1.472895871E1,7.390964031E-2,5.049949139E-2,-2.005012147E-2,9.173244210E-2
1.473889971E1,7.669823617E-2,9.781853855E-2,-4.859707505E-2,1.334644583E-1
1.474883971E1,8.367827535E-2,1.562359333E-1,-6.632395834E-2,1.892368571E-1
1.475878071E1,7.634605467E-2,1.980832517E-1,-7.099834085E-2,2.238447209E-1
1.476872171E1,6.412214786E-2,2.088251114E-1,-7.524102181E-2,2.310428280E-1
1.477866271E1,4.299235716E-2,2.084384263E-1,-5.989934877E-2,2.210946682E-1
1.478860371E1,-4.618096724E-2,1.434446573E-1,1.876454987E-2,1.518590128E-1
1.479854371E1,-6.875658780E-2,2.930902690E-2,-5.170615390E-2,9.088461792E-2
1.480848471E1,-2.031631535E-3,2.712213434E-2,-1.006908044E-1,1.042994525E-1
1.481842571E1,1.750984602E-2,3.742242232E-3,-5.140341446E-2,5.443261984E-2
1.482836671E1,8.046359755E-3,-1.639176719E-2,-1.155924704E-2,2.161134260E-2
1.483830708E1,9.655441158E-3,2.647970337E-3,-2.543138713E-2,2.733120455E-2
1.484824708E1,2.701817267E-2,-3.528669709E-3,-4.832522944E-2,5.547757172E-2
1.485818808E1,2.303967625E-2,-9.253134020E-3,-2.688811719E-2,3.659806029E-2
1.486812908E1,9.168263525E-3,-1.275298838E-2,-3.449051455E-2,3.789843483E-2
1.487807008E1,1.020849403E-2,1.186394133E-2,-7.879433036E-2,8.033375972E-2
1.488801108E1,1.100929454E-2,4.435613006E-2,-9.605611861E-2,1.063740982E-1
1.489795108E1,1.104311645E-2,6.723535061E-2,-8.269078285E-2,1.071462009E-1
1.490789208E1,8.490627632E-3,7.383328676E-2,-7.927011698E-2,1.086609242E-1
1.491783308E1,2.665761393E-3,7.738141716E-2,-7.942084968E-2,1.109173628E-1
1.492777408E1,-6.400940940E-3,6.611825526E-2,-6.896204501E-2,9.575155025E-2
1.493771508E1,-7.061937824E-3,4.925751314E-2,-4.675021768E-2,6.827705631E-2
1.494765508E1,-4.967779387E-3,2.674745396E-2,-1.634580828E-2,3.173784135E-2
1.495759608E1,1.049400121E-2,-1.283723861E-2,-6.054821424E-3,1.765161803E-2
1.496753708E1,4.465317726E-2,-3.125061467E-2,-1.350036357E-2,5.614950555E-2
1.497747808E1,5.628826097E-2,-3.802010417E-2,-1.117382664E-2,6.883858689E-2
1.498741908E1,4.485881329E-2,-4.375963286E-2,-6.997702643E-3,6.305700944E-2
1.499735908E1,2.608938701E-2,-3.790999949E-2,-1.623141393E-2,4.879839110E-2
1.500730008E1,1.011141669E-2,-2.868214063E-2,-2.568862773E-2,3.980969145E-2
1.501724108E1,-9.531793185E-3,-1.802629977E-2,-3.529571742E-2,4.076260827E-2
1.502718208E1,-2.664414421E-2,-3.397002583E-3,-4.195140675E-2,4.981335740E-2
1.503712308E1,-3.987392783E-2,3.562103724E-3,-4.396076128E-2,5.945727235E-2
1.504706308E1,-4.128263146E-2,7.750299759E-3,-3.479940444E-2,5.454650636E-2
1.505700408E1,-3.485269472E-2,3.734519007E-3,-2.323782258E-2,4.205536065E-2
1.506694508E1,-2.043463662E-2,-6.723857485E-3,-1.505024079E-2,2.625441641E-2
1.507688608E1,-1.108427718E-2,-1.650618017E-2,-7.314822637E-3,2.118541514E-2
1.508682708E1,-1.011376362E-2,-1.557405479E-2,-1.699200133E-3,1.864743088E-2
1.509676708E1,-6.143523846E-3,-1.156413276E-2,-5.968779325E-3,1.439091305E-2
1.510670808E1,-4.539559130E-3,-4.671093076E-3,-2.480353415E-2,2.564453185E-2
1.511664908E1,-1.018359605E-2,1.636574976E-2,-3.190405294E-2,3.727481708E-2
1.512659008E1,-2.183692902E-2,3.808357567E-2,-3.638388216E-2,5.701751561E-2
1.513653108E1,-2.863624506E-2,4.866511375E-2,-3.503632545E-2,6.645202727E-2
1.514647108E1,-3.136408329E-2,4.532083124E-2,-2.385954559E-2,6.005798349E-2
1.515641208E1,-2.461563051E-2,2.855516784E-2,-8.364209905E-3,3.861718378E-2
1.516635308E1,-1.629630663E-2,6.864438299E-3,3.519549966E-3,1.802990168E-2
1.517629408E1,2.741484495E-4,-9.687906131E-3,1.675146632E-2,1.935309553E-2
1.518623508E1,8.525167592E-3,-2.593508177E-2,2.765096538E-2,3.885721085E-2
1.519617508E1,1.037553232E-2,-3.678160533E-2,3.619198874E-2,5.263457239E-2
1.520611608E1,1.024408173E-2,-3.829550371E-2,4.539036378E-2,6.026418454E-2
1.521605708E1,9.677360766E-3,-3.656524792E-2,4.834114760E-2,6.138025105E-2
1.522599808E1,4.123141989E-3,-3.451515362E-2,4.511585832E-2,5.695381287E-2
1.523593908E1,1.111639198E-3,-2.795685083E-2,4.172325507E-2,5.023595588E-2
1.524587908E1,-6.411339622E-3,-1.536912099E-2,3.731940687E-2,4.086628543E-2
1.525582008E1,-1.705173403E-2,5.390057922E-4,3.982464224E-2,4.332498460E-2
1.526576108E1,-2.006215788E-2,6.631492171E-3,3.567222133E-2,4.146051425E-2
1.527570208E1,-1.344606746E-2,1.151239616E-3,3.088226169E-2,3.370216863E-2
1.528564308E1,-7.532235701E-3,-4.723256454E-3,2.295542136E-2,2.461696764E-2
1.529558308E1,-4.762015305E-3,-1.265920978E-2,1.867971756E-2,2.306218181E-2
1.530552408E1,-7.612975314E-3,-1.806627400E-2,1.371734962E-2,2.392725078E-2
1.531546508E1,-9.515270591E-3,-2.126579545E-2,8.683975786E-3,2.486334383E-2
1.532540608E1,-1.390390471E-2,-1.462011784E-2,8.227261715E-3,2.178885603E-2
1.533534708E1,-1.543868426E-2,-4.900378175E-3,1.051108120E-3,1.623180539E-2
1.534528708E1,-2.072712034E-2,3.912281245E-3,-3.772081109E-3,2.142774039E-2
1.535522808E1,-1.589614712E-2,1.105434727E-2,-5.802475847E-3,2.021273887E-2
1.536516908E1,-1.408933103E-2,1.508159284E-2,-1.890947809E-3,2.072533172E-2
1.537511008E1,-6.945135072E-3,1.503365580E-2,2.632431453E-3,1.676828564E-2
1.538505108E1,8.395639248E-3,1.654060185E-2,1.001833938E-2,2.108187354E-2
1.539499108E1,1.631321758E-2,1.473151706E-2,2.599437721E-2,3.404183176E-2
1.540493208E1,1.979113743E-2,6.058004685E-3,4.221951962E-2,4.701995723E-2
1.541487308E1,2.637926489E-2,1.141276211E-3,5.400107801E-2,6.011060267E-2
1.542481408E1,3.269694373E-2,-5.101358984E-4,5.958453938E-2,6.796813740E-2
1.543475508E1,2.472210675E-2,2.408755245E-4,6.164982170E-2,6.642244424E-2
1.544469508E1,1.507128775E-2,4.863979411E-4,5.289060622E-2,5.499815019E-2
1.545463608E1,2.988259075E-3,-2.581563545E-3,3.640110791E-2,3.661468038E-2
1.546457708E1,-1.334289461E-2,-8.033624850E-3,1.755429059E-2,2.346753253E-2
1.547451808E1,-2.266582288E-2,-2.632468008E-3,4.993757699E-3,2.335823261E-2
1.548445908E1,-3.232476488E-2,6.054153200E-3,-3.550589085E-3,3.307793643E-2
1.549439908E1,-3.864417970E-2,1.701013185E-2,-4.472309258E-3,4.245843568E-2
1.550434008E1,-3.782929108E-2,1.655599289E-2,-2.855620347E-3,4.139215785E-2
1.551428108E1,-2.967841923E-2,1.310533471E-2,4.363127518E-4,3.244608967E-2
1.552422208E1,-1.733406819E-2,5.910799839E-3,7.098820060E-4,1.832788606E-2
1.553416308E1,-8.808222599E-3,5.150467157E-3,-1.300271833E-3,1.028604901E-2
1.554410308E1,-9.798759595E-3,1.105538104E-2,-4.922522232E-3,1.557139572E-2
1.555404408E1,-1.286751963E-2,1.048892643E-2,-1.060490962E-2,1.969910524E-2
1.556398508E1,-1.289673895E-2,1.063825190E-2,-1.470124442E-2,2.226263386E-2
1.557392608E1,-1.592927985E-2,6.794778164E-3,-2.119988948E-2,2.737419005E-2
1.558386708E1,-1.847701520E-2,5.748264957E-3,-2.583743632E-2,3.228026884E-2
1.559380708E1,-2.493997477E-2,3.275253344E-3,-1.710146852E-2,3.041693363E-2
1.560374808E1,-2.703523636E-2,3.122164402E-3,-6.666242145E-3,2.801947001E-2
1.561368908E1,-1.636022143E-2,8.972862735E-3,6.320929155E-3,1.970084405E-2
1.562363008E1,3.924724646E-3,2.011935785E-2,1.872234978E-2,2.776181560E-2
1.563357108E1,2.872807719E-2,3.019489348E-2,3.450397402E-2,5.410691485E-2
1.564351108E1,3.676913679E-2,3.652533516E-2,5.453561991E-2,7.523432307E-2
1.565345208E1,5.076191947E-2,3.472210839E-2,7.128743827E-2,9.415039105E-2
1.566339308E1,6.392610073E-2,2.431351505E-2,8.414985240E-2,1.084384204E-1
1.567333408E1,7.001355290E-2,1.444517076E-2,8.900798857E-2,1.141620891E-1
1.568327508E1,7.919739187E-2,-1.325530466E-3,9.554944932E-2,1.241115675E-1
1.569321508E1,7.590226829E-2,-1.019518916E-2,9.505809844E-2,1.220702187E-1
1.570315608E1,6.349668652E-2,-1.682018675E-2,9.166494012E-2,1.127706040E-1
1.571309708E1,4.201962799E-2,-1.995499246E-2,7.598292083E-2,8.909127408E-2
1.572303808E1,1.635847241E-2,-1.914352737E-2,5.654210597E-2,6.189575113E-2
1.573297908E1,-9.319192730E-3,-1.715601049E-2,3.377154842E-2,3.900889042E-2
1.574291908E1,-3.030236810E-2,-1.323451847E-2,1.113107428E-2,3.488963752E-2
1.575286008E1,-4.648213834E-2,-3.305454971E-3,-7.418108173E-3,4.718626438E-2
1.576280108E1,-5.120338872E-2,5.812409334E-3,-1.420118008E-2,5.345320041E-2
1.577274208E1,-5.091843009E-2,1.228096150E-2,-4.717130214E-3,5.259049206E-2
