"Time (s)","Acceleration x (m/s^2)","Acceleration y (m/s^2)","Acceleration z (m/s^2)","Absolute acceleration (m/s^2)"
6.813333312E-4,-1.448537750E0,1.713037720E0,8.455616455E0,8.748154633E0
1.062133333E-2,-1.112037506E0,1.463656311E0,8.423583069E0,8.621813552E0
2.056133332E-2,-1.337618408E0,1.193318481E0,8.128097534E0,8.323412853E0
3.050233333E-2,-1.308429108E0,9.880952454E-1,7.928712158E0,8.096468084E0
4.044233332E-2,-1.537602539E0,7.185058594E-1,7.635921021E0,7.822260675E0
5.038233333E-2,-1.524729309E0,5.007087708E-1,7.443271637E0,7.614315557E0
6.032233333E-2,-1.230740662E0,4.117936707E-1,7.421417084E0,7.534037970E0
7.026233333E-2,-1.280736694E0,1.383123779E-1,7.932005310E0,8.035927142E0
8.020233332E-2,-1.157393188E0,-1.646575928E-1,8.482710114E0,8.562887479E0
9.014333333E-2,-6.824308777E-1,-5.686674500E-1,8.951385498E0,8.995354185E0
1.000833333E-1,-2.222877502E-1,-9.072633362E-1,9.458680573E0,9.504692356E0
1.100233333E-1,-5.822891235E-2,-6.483018494E-1,9.461374969E0,9.483738831E0
1.199633333E-1,2.814147949E-1,-5.114863586E-1,9.286388855E0,9.304720874E0
1.299033333E-1,1.373543701E0,-9.551637268E-1,9.123228149E0,9.275357239E0
1.398433333E-1,2.817590790E0,-1.394200745E0,8.953181763E0,9.489050387E0
1.497843333E-1,4.079915771E0,-1.837878113E0,9.094787292E0,1.013600831E1
1.597243333E-1,4.481231232E0,-2.340383148E0,9.474248199E0,1.073872458E1
1.696643333E-1,4.138743439E0,-2.648592224E0,1.008602600E1,1.121927620E1
1.796043333E-1,3.746109924E0,-2.612666931E0,1.065589096E1,1.159341969E1
1.895443333E-1,3.748355255E0,-2.330503693E0,1.093431198E1,1.179154753E1
1.994853333E-1,4.131857758E0,-1.841770020E0,1.209769272E1,1.291582496E1
2.094253333E-1,4.930596771E0,-1.191372528E0,1.230905319E1,1.331326194E1
2.193653333E-1,5.748945007E0,-1.501078491E0,1.151705017E1,1.295940006E1
2.293053333E-1,6.437363434E0,-1.779200134E0,9.975406036E0,1.200474601E1
2.392453333E-1,6.172863464E0,-2.158062286E0,7.840994568E0,1.020993007E1
2.491863333E-1,6.084098053E0,-2.309247894E0,6.548133087E0,9.231842822E0
2.591263333E-1,6.111491089E0,-2.137854309E0,6.587351532E0,9.236554800E0
2.690663333E-1,6.371350708E0,-1.733844452E0,7.313940582E0,9.853631476E0
2.790063333E-1,6.043682098E0,-9.851014709E-1,8.093519440E0,1.014896917E1
2.889463333E-1,5.653593292E0,-1.059347076E0,8.592731323E0,1.034023041E1
2.988863333E-1,5.207221527E0,-1.501377869E0,9.112001495E0,1.060178583E1
3.088273333E-1,4.868326263E0,-1.856439514E0,9.564809875E0,1.089185734E1
3.187673333E-1,4.317172394E0,-2.252665558E0,9.544452209E0,1.071489839E1
3.287073333E-1,3.644770660E0,-2.890638885E0,9.186845856E0,1.029748917E1
3.386473333E-1,2.837499390E0,-3.700604553E0,8.781488800E0,9.942857858E0
3.485873333E-1,2.378254395E0,-4.443359985E0,8.467441864E0,9.853786767E0
3.585273333E-1,2.728675690E0,-4.712500305E0,8.146359558E0,9.798801161E0
3.684683333E-1,3.725752258E0,-4.505031738E0,7.915090485E0,9.839979585E0
3.784083333E-1,5.374423828E0,-3.825444946E0,8.467142487E0,1.073363696E1
3.883483333E-1,6.960525513E0,-2.234403534E0,9.399852905E0,1.190792632E1
3.982883333E-1,8.499325562E0,-5.788462830E-1,9.541308746E0,1.279101914E1
4.082283333E-1,9.767787781E0,3.540138245E-1,8.932674408E0,1.324113575E1
4.181693333E-1,1.090347610E1,9.238787842E-1,8.505762177E0,1.385955747E1
4.281093333E-1,1.145073807E1,6.854246521E-1,7.888894958E0,1.392206425E1
4.380493333E-1,1.122096588E1,7.352709961E-1,7.049889679E0,1.327221320E1
4.479893333E-1,1.063852707E1,9.292675781E-1,6.547534332E0,1.252645210E1
4.579293333E-1,9.693841553E0,9.428892517E-1,5.665718079E0,1.126765129E1
4.678693333E-1,8.849447479E0,6.426136780E-1,4.384831696E0,9.897091594E0
4.778103333E-1,8.286767578E0,4.457730103E-1,2.519261169E0,8.672710494E0
4.877503333E-1,8.021668854E0,1.327589264E0,5.046006775E-1,8.146427824E0
4.976903333E-1,7.688162384E0,2.180066528E0,-1.716929626E-1,7.993122630E0
5.076303333E-1,8.708740082E0,2.812800751E0,1.592687988E-1,9.153107037E0
5.175703333E-1,9.383237457E0,3.774251404E0,1.556762695E0,1.023296775E1
5.275113333E-1,9.981543274E0,4.003873901E0,1.895807648E0,1.092045324E1
5.374513333E-1,1.003273682E1,4.509821777E0,5.635780334E-1,1.101416909E1
5.473913333E-1,9.302405548E0,4.657414856E0,-8.247848511E-1,1.043582925E1
5.573313333E-1,8.938811646E0,3.921994171E0,-1.332379303E0,9.851884415E0
5.672713333E-1,8.916957092E0,4.135599976E0,-1.396595764E0,9.928030554E0
5.772113333E-1,8.694519653E0,4.365072784E0,-1.320703583E0,9.817983009E0
5.871522083E-1,8.559201050E0,4.803960114E0,-9.572593689E-1,9.861759523E0
5.970922083E-1,8.881331177E0,3.962410126E0,1.682501221E-1,9.726615320E0
6.070322083E-1,9.363328857E0,3.117566986E0,1.515897675E0,9.984442747E0
6.169722083E-1,9.436077576E0,3.485052795E0,2.639760590E0,1.039968697E1
6.269122083E-1,9.569001160E0,2.968926086E0,3.491339722E0,1.060988965E1
6.368532083E-1,9.880204010E0,1.607956238E0,3.473077698E0,1.059557564E1
6.467932083E-1,8.734636230E0,2.231409760E0,2.726580048E0,9.418455200E0
6.567332083E-1,7.707023163E0,6.346801758E-1,3.272345123E0,8.396979669E0
6.666732083E-1,6.466253357E0,-8.864566040E-1,3.125799866E0,7.236633374E0
6.766132083E-1,3.250490570E0,-8.493338013E-1,2.016606445E0,3.918387220E0
6.865532083E-1,1.165476379E0,-1.405876465E0,1.587299194E0,2.419574871E0
6.964942083E-1,2.345173187E0,-4.575535126E0,2.375709686E0,5.663864006E0
7.064342083E-1,4.983436890E0,-6.699019318E0,3.029250641E0,8.881883950E0
7.163742083E-1,8.319848785E0,-5.598208466E0,3.939358063E0,1.077396695E1
7.263142083E-1,1.134086655E1,-3.718716888E0,3.984264679E0,1.258246694E1
7.362542083E-1,1.269539978E1,-3.203188934E0,2.868035889E0,1.340370191E1
7.461942083E-1,1.269001099E1,-2.546055450E0,5.406756592E-1,1.295419266E1
7.561352083E-1,1.316467392E1,-2.095791779E0,-2.050585785E0,1.348724897E1
7.660752083E-1,1.371552841E1,-1.940863953E0,-4.763544159E0,1.464834549E1
7.760152083E-1,1.360401031E1,-2.238145752E0,-7.119195557E0,1.551648602E1
7.859552083E-1,1.382974091E1,-2.751278687E0,-9.180558929E0,1.682598972E1
7.958952083E-1,1.349279160E1,-3.080294495E0,-9.577982483E0,1.683096514E1
8.058362083E-1,1.290092239E1,-3.144660645E0,-7.446564789E0,1.522412613E1
8.157762083E-1,1.222882004E1,-2.781515808E0,-4.419110413E0,1.329696983E1
8.257162083E-1,1.121123611E1,-2.355501709E0,-2.239193573E0,1.167279707E1
8.356562083E-1,9.803413696E0,-2.325264587E0,-8.818162537E-1,1.011391988E1
8.455962083E-1,8.701555023E0,-2.512375488E0,2.948867798E-2,9.057039251E0
8.555362083E-1,7.727979584E0,-2.690654755E0,3.454815674E-1,8.190277710E0
8.654772083E-1,6.878945160E0,-2.694546661E0,3.047662354E-1,7.394142998E0
8.754172083E-1,6.496789856E0,-2.874023438E0,1.528022461E0,7.266577034E0
8.853572083E-1,7.010671234E0,-3.251837769E0,1.005010071E0,7.793202504E0
8.952972083E-1,7.548203430E0,-3.489992523E0,7.834707642E-1,8.352798889E0
9.052372083E-1,7.853269043E0,-3.574416962E0,1.419049072E-1,8.629625037E0
9.151782083E-1,8.117319946E0,-3.871998138E0,-1.131946106E0,9.064466597E0
9.251182083E-1,8.176147614E0,-4.653073883E0,-2.079625397E0,9.634590191E0
9.350582083E-1,8.210875397E0,-5.128185883E0,-2.423909454E0,9.979584273E0
9.449982083E-1,8.325836334E0,-5.395979004E0,-2.344873810E0,1.019483071E1
9.549382083E-1,8.782835999E0,-5.842799835E0,-2.364033966E0,1.081041973E1
9.648782083E-1,8.967102814E0,-6.367907867E0,-2.782413940E0,1.134464679E1
9.748192083E-1,8.720864868E0,-6.595883789E0,-3.022215271E0,1.134429161E1
9.847592083E-1,8.594078522E0,-6.314768372E0,-2.625091095E0,1.098296811E1
9.946992083E-1,8.670419769E0,-6.061944122E0,-1.721420288E0,1.071851824E1
1.004639208E0,8.751251678E0,-6.158343658E0,-9.662406921E-1,1.074445083E1
1.014579208E0,8.497978363E0,-6.368356934E0,-5.312452698E-1,1.063267736E1
1.024519208E0,8.024512939E0,-6.544540558E0,-1.661544800E-1,1.035622645E1
1.034460208E0,7.356452179E0,-6.540798340E0,1.242416382E-2,9.843758730E0
1.044400208E0,6.480174408E0,-6.468498688E0,2.823129272E-1,9.160449564E0
1.054340208E0,5.586532745E0,-6.341712341E0,5.071453857E-1,8.466632151E0
1.064280208E0,4.865182800E0,-6.086343384E0,4.345463562E-1,7.803999616E0
1.074220208E0,4.280348969E0,-5.845643921E0,1.308279419E-1,7.246382276E0
1.084161208E0,3.829935608E0,-5.647306366E0,-2.504292297E-1,6.828117658E0
1.094101208E0,3.434907074E0,-5.510341187E0,-6.230044556E-1,6.523080649E0
1.104041208E0,3.118315430E0,-5.334307251E0,-8.681945801E-1,6.239590275E0
1.113981208E0,2.778971100E0,-5.510041809E0,-1.130149841E0,6.273793093E0
1.123921208E0,2.505639496E0,-5.723048859E0,-1.452130280E0,6.414062665E0
1.133861208E0,2.026036835E0,-5.734574890E0,-1.697021027E0,6.314273893E0
1.143802208E0,1.364712067E0,-5.562133484E0,-1.782493286E0,5.998087214E0
1.153742208E0,7.249424744E-1,-5.363047485E0,-1.747017059E0,5.686817082E0
1.163682208E0,2.029779053E-1,-5.120851135E0,-1.710343323E0,5.402739181E0
1.173622208E0,-7.200027466E-2,-4.757257233E0,-1.584455109E0,5.014696243E0
1.183562208E0,-1.571731567E-1,-4.347409515E0,-1.401086426E0,4.570308093E0
1.193502208E0,-1.046324158E-1,-3.971541138E0,-1.172661438E0,4.142369105E0
1.203443208E0,-3.218307495E-2,-3.670517120E0,-1.124761047E0,3.839116968E0
1.213383208E0,-1.682501221E-1,-3.576213226E0,-1.278940430E0,3.801749303E0
1.223323208E0,2.754272461E-2,-3.542383575E0,-1.455423431E0,3.829816884E0
1.233263208E0,4.076023865E-1,-4.161196747E0,-1.227297821E0,4.357517414E0
1.243203208E0,7.978408813E-1,-4.479434967E0,-7.509883118E-1,4.611493374E0
1.253143208E0,-1.797761536E0,-1.051054321E1,-3.592529297E-1,1.066923277E1
1.263084208E0,-1.003094055E1,-2.155876831E1,-4.520599365E-2,2.377818965E1
1.273024208E0,-1.626802048E1,-2.915382431E1,-7.373666382E-1,3.339367712E1
1.282964208E0,-1.534863235E1,-3.240611115E1,-7.409591675E-1,3.586482365E1
1.292904208E0,-8.086035004E0,-3.222947845E1,-4.011657715E-2,3.322837421E1
1.302844208E0,-2.427052917E0,-2.616723495E1,6.945556641E-2,2.627964222E1
1.312785208E0,-5.088817749E0,-1.834076019E1,1.807940369E0,1.911931481E1
1.322725208E0,-7.299271088E0,-1.344728622E1,2.978057098E0,1.558774164E1
1.332665208E0,-6.301595764E0,-9.666897583E0,3.118165741E0,1.195332488E1
1.342605208E0,-4.611610107E0,-6.822662201E0,2.770438843E0,8.688555615E0
1.352545208E0,-3.043022003E0,-4.268822937E0,2.921923828E0,6.001705677E0
1.362485208E0,-1.719474335E0,-2.286046143E0,2.569855957E0,3.845355457E0
1.372426208E0,-1.230141907E0,-2.409988403E0,1.336869965E0,3.018031563E0
1.382366208E0,-1.466799774E0,-3.922443237E0,1.880090332E-1,4.191945840E0
1.392306208E0,-2.175725555E0,-5.740562439E0,-4.808001709E-1,6.157841149E0
1.402246208E0,-2.971919861E0,-7.835755463E0,-6.604266357E-1,8.406398436E0
1.412186208E0,-3.795656891E0,-1.022284149E1,-1.487606506E0,1.100574725E1
1.422126208E0,-4.678071899E0,-1.158979889E1,-2.336341553E0,1.271480581E1
1.432067208E0,-5.323978729E0,-1.129625931E1,-1.320104828E0,1.255758339E1
1.442007208E0,-5.304519196E0,-1.029573990E1,1.486408997E-1,1.158284413E1
1.451947208E0,-5.183121643E0,-9.666598206E0,8.256829834E-1,1.099952832E1
1.461887208E0,-5.004692688E0,-9.264534302E0,8.683442688E-1,1.056563138E1
1.471827208E0,-4.645888824E0,-8.786428528E0,6.515950012E-1,9.960430979E0
1.481767208E0,-4.475992126E0,-8.689879303E0,4.830455017E-1,9.786819748E0
1.491708208E0,-4.323459320E0,-8.942404175E0,2.480342102E-1,9.935814707E0
1.501648208E0,-4.106410675E0,-9.243727570E0,8.232879639E-2,1.011513154E1
1.511588208E0,-3.808979187E0,-9.306147766E0,-8.996292114E-2,1.005588395E1
1.521528208E0,-3.630250854E0,-9.176966400E0,-2.049238586E-1,9.871039832E0
1.531468208E0,-3.659589844E0,-9.143286438E0,-1.320254517E-1,9.849351016E0
1.541408208E0,-3.665427704E0,-9.154513092E0,-1.257385254E-2,9.861066286E0
1.551349208E0,-3.477718048E0,-9.079519043E0,1.074765015E-1,9.723360534E0
1.561289208E0,-3.369343414E0,-9.084608459E0,3.409909058E-1,9.695300960E0
1.571229208E0,-3.362906799E0,-9.111552429E0,6.553372192E-1,9.734423285E0
1.581169208E0,-3.292104034E0,-9.052126007E0,9.428892517E-1,9.678221653E0
1.591108750E0,-3.403472443E0,-9.107660522E0,1.209634552E0,9.797771206E0
1.601049750E0,-3.576362915E0,-9.201066284E0,1.434766388E0,9.975397088E0
1.610989750E0,-3.545826416E0,-9.266629944E0,1.494492188E0,1.003378405E1
1.620929750E0,-3.292403412E0,-9.300309906E0,1.321302338E0,9.953970285E0
1.630869750E0,-3.098855896E0,-9.380692749E0,1.093027039E0,9.939568020E0
1.640809750E0,-3.122357025E0,-9.553732910E0,9.598040771E-1,1.009673956E1
1.650749750E0,-3.154540100E0,-9.725874939E0,8.496331787E-1,1.025990463E1
1.660690750E0,-3.100652161E0,-9.704619141E0,7.337741089E-1,1.021430864E1
1.670630750E0,-3.072211304E0,-9.581724701E0,6.176156616E-1,1.008113980E1
1.680570750E0,-3.078647919E0,-9.416767731E0,5.087919617E-1,9.920305276E0
1.690510750E0,-3.167113953E0,-9.329199829E0,4.025129700E-1,9.860354808E0
1.700450750E0,-3.286565552E0,-9.261540527E0,3.360511780E-1,9.833136654E0
1.710390750E0,-3.347339172E0,-9.173673248E0,2.818638611E-1,9.769360657E0
1.720331750E0,-3.292852478E0,-9.028175812E0,1.468446350E-1,9.611056096E0
1.730271750E0,-3.242407379E0,-9.015751648E0,-2.065704346E-2,9.581096498E0
1.740211750E0,-3.175945587E0,-9.088350677E0,-1.571731567E-1,9.628574755E0
1.750151750E0,-3.150648193E0,-9.173523560E0,-2.430944824E-1,9.702536445E0
1.760091750E0,-3.139421539E0,-9.269324341E0,-2.891986084E-1,9.790810854E0
1.770031750E0,-3.263812866E0,-9.529782715E0,-2.230361938E-1,1.007566267E1
1.779972750E0,-3.302282867E0,-9.677974548E0,-1.580712891E-1,1.022708414E1
1.789912750E0,-3.278332672E0,-9.676777039E0,-1.496887207E-4,1.021701909E1
1.799852750E0,-3.248993683E0,-9.661508789E0,1.604663086E-1,1.019443287E1
1.809792750E0,-3.194806366E0,-9.577982483E0,2.974314880E-1,1.010113863E1
1.819732750E0,-3.153342590E0,-9.459129639E0,4.023632813E-1,9.979007928E0
1.829672750E0,-3.153641968E0,-9.359436951E0,5.454656982E-1,9.891514066E0
1.839613750E0,-3.186124420E0,-9.270821228E0,6.483018494E-1,9.824449621E0
1.849553750E0,-3.220253448E0,-9.170529785E0,7.137158203E-1,9.745667709E0
1.859493750E0,-3.250340881E0,-9.074579315E0,7.375163269E-1,9.667297240E0
1.869433750E0,-3.305875397E0,-8.971892853E0,7.617658997E-1,9.591869515E0
1.879373750E0,-3.419189758E0,-8.928034058E0,7.694000244E-1,9.591278702E0
1.889313750E0,-3.524121552E0,-8.923244019E0,7.821235657E-1,9.625769257E0
1.899254750E0,-3.592080231E0,-8.951984253E0,7.463479614E-1,9.674610986E0
1.909194750E0,-3.708987122E0,-8.980425110E0,7.206015015E-1,9.742889055E0
1.919134750E0,-3.772455139E0,-9.082812195E0,6.991960144E-1,9.859907211E0
1.929074750E0,-3.839964752E0,-9.229357452E0,7.384144592E-1,1.002355347E1
1.939014750E0,-3.922443237E0,-9.322314148E0,7.628137207E-1,1.014263214E1
1.948954750E0,-3.989503784E0,-9.359736328E0,8.581654358E-1,1.021064408E1
1.958895750E0,-4.035009155E0,-9.307644653E0,9.128018188E-1,1.018561510E1
1.968835750E0,-4.010759583E0,-9.123377838E0,9.695338440E-1,1.001310199E1
1.978775750E0,-3.909719696E0,-8.934320984E0,1.015039215E0,9.805014235E0
1.988715750E0,-3.840713196E0,-8.835077362E0,1.068478088E0,9.692848666E0
1.998655750E0,-3.816912689E0,-8.783285065E0,1.113684082E0,9.641328292E0
2.008596750E0,-3.867357788E0,-8.785081329E0,1.159039764E0,9.668375427E0
2.018536750E0,-3.871100006E0,-8.864416351E0,1.172362061E0,9.743599197E0
2.028476750E0,-3.823498993E0,-8.985364838E0,1.176852722E0,9.835695611E0
2.038416750E0,-3.739822998E0,-9.157357178E0,1.184037781E0,9.962199155E0
2.048356750E0,-3.608995056E0,-9.287885742E0,1.170565796E0,1.003294030E1
2.058296750E0,-3.450325012E0,-9.341025238E0,1.181044006E0,1.002767970E1
2.068236750E0,-3.303330688E0,-9.359736328E0,1.173559570E0,9.994693584E0
2.078177750E0,-3.189118195E0,-9.353748779E0,1.187181244E0,9.953516484E0
2.088117750E0,-3.057990875E0,-9.402996368E0,1.197809143E0,9.960039942E0
2.098057750E0,-2.952310638E0,-9.421108704E0,1.215921478E0,9.947456577E0
2.107997750E0,-2.822979584E0,-9.435179443E0,1.209035797E0,9.922378365E0
2.117937750E0,-2.751128998E0,-9.424401855E0,1.214873657E0,9.892622458E0
2.127878750E0,-2.665207672E0,-9.396110687E0,1.144819336E0,9.833658490E0
2.137818750E0,-2.603236542E0,-9.390123138E0,1.060694275E0,9.801853161E0
2.147758750E0,-2.559377747E0,-9.390123138E0,9.433383179E-1,9.778277670E0
2.157698750E0,-2.525847473E0,-9.384884033E0,7.890092468E-1,9.750819933E0
2.167638750E0,-2.501897278E0,-9.291927338E0,6.375242615E-1,9.643953589E0
2.177578750E0,-2.488574982E0,-9.162745972E0,4.541555786E-1,9.505533992E0
2.187518750E0,-2.520608368E0,-9.111253052E0,2.475851440E-1,9.456727612E0
2.197459750E0,-2.528541870E0,-9.152118073E0,5.852828979E-2,9.495167969E0
2.207399750E0,-2.552941132E0,-9.239536285E0,-9.101074219E-2,9.586178704E0
2.217339750E0,-2.635120239E0,-9.280550995E0,-1.606159973E-1,9.648745149E0
2.227279750E0,-2.739303589E0,-9.360185394E0,-1.023870850E-1,9.753324453E0
2.237219750E0,-2.781815186E0,-9.398056641E0,1.034349060E-1,9.801666344E0
2.247160750E0,-2.804867249E0,-9.433682556E0,3.543132019E-1,9.848207182E0
2.257100750E0,-2.855312347E0,-9.444759521E0,5.857319641E-1,9.884299315E0
2.267040750E0,-2.904110870E0,-9.452243958E0,7.960446167E-1,9.920305581E0
2.276980750E0,-3.000360718E0,-9.449699249E0,9.765692139E-1,9.962563313E0
2.286920750E0,-3.062481537E0,-9.438023529E0,1.106648712E0,9.983974793E0
2.296860750E0,-3.155138855E0,-9.400900726E0,1.184486847E0,9.986733437E0
2.306800750E0,-3.259172516E0,-9.402247925E0,1.194815369E0,1.002257728E1
2.316741750E0,-3.352428589E0,-9.402547302E0,1.103056183E0,1.004307752E1
2.326681750E0,-3.435206451E0,-9.351353760E0,9.789642334E-1,1.001033623E1
2.336621750E0,-3.479664001E0,-9.269923096E0,8.054750061E-1,9.934199804E0
2.346561750E0,-3.502416687E0,-9.169631653E0,6.053411865E-1,9.834404163E0
2.356501750E0,-3.501069489E0,-9.098679199E0,3.718267822E-1,9.756111207E0
2.366442750E0,-3.516188049E0,-9.081015930E0,9.385482788E-2,9.738441223E0
2.376382750E0,-3.560046844E0,-9.130263519E0,-1.353186035E-1,9.800712045E0
2.386322750E0,-3.587140503E0,-9.219777374E0,-2.656974792E-1,9.896588653E0
2.396262750E0,-3.579656067E0,-9.310788116E0,-3.261717224E-1,9.980536103E0
2.406202750E0,-3.530408478E0,-9.359287262E0,-2.782713318E-1,1.000687149E1
2.416142750E0,-3.469185791E0,-9.399852905E0,-1.583706665E-1,1.002085655E1
2.426082750E0,-3.341351624E0,-9.479636993E0,-7.933502197E-3,1.005127908E1
2.436023750E0,-3.211571503E0,-9.510772247E0,1.137634277E-1,1.003901999E1
2.445963750E0,-3.085084534E0,-9.500294037E0,2.189945984E-1,9.991060604E0
2.455903750E0,-2.939287720E0,-9.463919678E0,2.763253784E-1,9.913704841E0
2.465843750E0,-2.823428650E0,-9.472751312E0,2.830613708E-1,9.888624298E0
2.475783750E0,-2.756517792E0,-9.518406372E0,2.850073242E-1,9.913610814E0
2.485723750E0,-2.686463470E0,-9.563762054E0,2.538720703E-1,9.937156617E0
2.495664750E0,-2.699785767E0,-9.547595673E0,2.043251038E-1,9.924070489E0
2.505604750E0,-2.752476196E0,-9.462871857E0,1.844165039E-1,9.856778299E0
2.515544750E0,-2.867287445E0,-9.332792358E0,1.688488770E-1,9.764776518E0
2.525484750E0,-3.043770447E0,-9.261540527E0,1.919009399E-1,9.750769069E0
2.535424750E0,-3.256328430E0,-9.247170410E0,2.519261169E-1,9.807002713E0
2.545364750E0,-3.500321045E0,-9.262288971E0,3.369493103E-1,9.907359852E0
2.555305750E0,-3.715124359E0,-9.278904419E0,4.403842163E-1,1.000470662E1
2.565245750E0,-3.890559540E0,-9.276210022E0,5.116360474E-1,1.007205527E1
2.575185750E0,-4.026476898E0,-9.278904419E0,5.571414185E-1,1.013020187E1
2.585126375E0,-4.151167603E0,-9.281748505E0,5.533992004E-1,1.018279424E1
2.595066375E0,-4.221820679E0,-9.238039398E0,5.328918457E-1,1.017099383E1
2.605006375E0,-4.235292664E0,-9.182504883E0,4.867877197E-1,1.012388572E1
2.614947375E0,-4.239783325E0,-9.116192780E0,4.308041382E-1,1.006311709E1
2.624887375E0,-4.238585815E0,-9.003776550E0,3.466790771E-1,9.957599523E0
2.634827375E0,-4.253854065E0,-8.939560089E0,2.350112915E-1,9.902839961E0
2.644767375E0,-4.246519318E0,-8.885223083E0,1.323248291E-1,9.848737250E0
2.654707375E0,-4.253105621E0,-8.859027557E0,1.017883301E-2,9.827073842E0
2.664647375E0,-4.274960175E0,-8.838819580E0,-7.589218140E-2,9.818644290E0
2.674588375E0,-4.353247375E0,-8.869954834E0,-1.179547119E-1,9.881334666E0
2.684528375E0,-4.386478271E0,-8.892857208E0,-1.203497314E-1,9.916581317E0
2.694468375E0,-4.414170685E0,-8.944200439E0,-1.079255676E-1,9.974731689E0
2.704408375E0,-4.512516174E0,-8.982820129E0,-4.340972900E-2,1.005264861E1
2.714348375E0,-4.544699249E0,-8.989556122E0,4.819976807E-2,1.007316900E1
2.724288375E0,-4.469256134E0,-8.976084137E0,1.249900818E-1,1.002795888E1
2.734229375E0,-4.324956207E0,-8.945248260E0,2.176473999E-1,9.938313893E0
2.744169375E0,-4.132456512E0,-8.849297791E0,2.794688416E-1,9.770638211E0
2.754109375E0,-3.959266663E0,-8.784632263E0,2.936892700E-1,9.640114620E0
2.764049375E0,-3.880680084E0,-8.817414093E0,3.180885315E-1,9.638861422E0
2.773989375E0,-3.779340820E0,-8.877738647E0,2.956352234E-1,9.653240944E0
2.783929375E0,-3.663631439E0,-9.003327484E0,2.167492676E-1,9.722606716E0
2.793870375E0,-3.519930267E0,-9.128317566E0,1.199006653E-1,9.784194747E0
2.803810375E0,-3.365152130E0,-9.203461304E0,6.092330933E-2,9.799574505E0
2.813750375E0,-3.226690063E0,-9.203760681E0,-1.137634277E-2,9.752992816E0
2.823690375E0,-3.066822510E0,-9.159452820E0,-1.407073975E-2,9.659253297E0
2.833630375E0,-3.010090485E0,-9.124275970E0,1.212478638E-2,9.607976047E0
2.843570375E0,-2.954705658E0,-9.098529510E0,4.385879517E-2,9.566370700E0
2.853510375E0,-2.902015228E0,-9.050030365E0,5.748046875E-2,9.504106796E0
2.863451375E0,-2.897075500E0,-9.015302582E0,-1.930984497E-2,9.469376958E0
2.873391375E0,-2.915636902E0,-8.966953125E0,-1.721420288E-1,9.430631992E0
2.883331375E0,-2.995121613E0,-8.861871643E0,-3.649411011E-1,9.361447778E0
2.893271375E0,-3.308569794E0,-8.585546265E0,-6.090834045E-1,9.221129071E0
2.903211375E0,-3.737877045E0,-8.335266724E0,-8.599617004E-1,9.175398099E0
2.913151375E0,-4.158951416E0,-8.235124969E0,-1.113085327E0,9.292637897E0
2.923092375E0,-4.455634460E0,-8.223000183E0,-1.344354401E0,9.448687698E0
2.933032375E0,-4.642146606E0,-8.288114777E0,-1.480122070E0,9.614215153E0
2.942972375E0,-4.729714508E0,-8.431815948E0,-1.429227905E0,9.772840525E0
2.952912375E0,-4.691843262E0,-8.620573425E0,-1.283730469E0,9.898264661E0
2.962852375E0,-4.549489288E0,-8.777297516E0,-1.070723419E0,9.944106451E0
2.972792375E0,-4.345463562E0,-8.924291840E0,-8.578660583E-1,9.963030291E0
2.982733375E0,-4.130211182E0,-9.061257019E0,-6.695576477E-1,9.980647805E0
2.992673375E0,-3.954476624E0,-9.163793793E0,-5.397775269E-1,9.995216947E0
3.002613375E0,-3.813619537E0,-9.197773132E0,-4.403842163E-1,9.966777956E0
3.012553375E0,-3.663332062E0,-9.219477997E0,-3.692820740E-1,9.927494426E0
3.022493375E0,-3.506607971E0,-9.234895935E0,-3.414399719E-1,9.884137982E0
3.032433375E0,-3.410657501E0,-9.222022705E0,-3.523672485E-1,9.838823611E0
3.042374375E0,-3.350632324E0,-9.211993561E0,-4.034111023E-1,9.810723870E0
3.052314375E0,-3.334765320E0,-9.266629944E0,-4.658312988E-1,9.859416263E0
3.062254375E0,-3.312012634E0,-9.270521851E0,-5.563929749E-1,9.860100213E0
3.072194375E0,-3.307072906E0,-9.313033447E0,-6.587800598E-1,9.904711726E0
3.082134375E0,-3.296894073E0,-9.336235199E0,-7.695497131E-1,9.931112978E0
3.092074375E0,-3.309767303E0,-9.310488739E0,-9.333091736E-1,9.925262021E0
3.102014375E0,-3.342848511E0,-9.281598816E0,-1.030307465E0,9.918883315E0
3.111955375E0,-3.399430847E0,-9.257648621E0,-1.102756805E0,9.923520577E0
3.121895375E0,-3.484454041E0,-9.275012512E0,-1.215322723E0,9.982198474E0
3.131835375E0,-3.558549957E0,-9.230554962E0,-1.285227356E0,9.975882521E0
3.141775375E0,-3.558699646E0,-9.212442627E0,-1.279838562E0,9.958485280E0
3.151715375E0,-3.573219452E0,-9.294172668E0,-1.143023071E0,1.002277629E1
3.161655375E0,-3.563190308E0,-9.357341309E0,-1.001716919E0,1.006278283E1
3.171596375E0,-3.500470734E0,-9.316476288E0,-9.117539978E-1,9.994064295E0
3.181536375E0,-3.443888397E0,-9.099128265E0,-8.346643066E-1,9.764792214E0
3.191476375E0,-3.426823883E0,-8.799900513E0,-7.563771057E-1,9.473831183E0
3.201416375E0,-3.414699097E0,-8.559201050E0,-5.912704468E-1,9.234159045E0
3.211356375E0,-3.458108826E0,-8.387208710E0,-4.531077576E-1,9.083451614E0
3.221296375E0,-3.538042603E0,-8.362809448E0,-3.617976379E-1,9.087641325E0
3.231237375E0,-3.736679535E0,-8.445437622E0,-4.080514526E-1,9.244170951E0
3.241177375E0,-3.977079620E0,-8.544681244E0,-6.349795532E-1,9.446265871E0
3.251117375E0,-4.102069702E0,-8.610843658E0,-8.890013123E-1,9.579349022E0
3.261057375E0,-4.337380371E0,-8.580307159E0,-1.167422333E0,9.684906522E0
3.270997375E0,-4.491709442E0,-8.607251129E0,-1.365310822E0,9.804300044E0
3.280937375E0,-4.551884308E0,-8.588839417E0,-1.504820709E0,9.836274632E0
3.290878375E0,-4.559668121E0,-8.552764435E0,-1.550026703E0,9.815443731E0
3.300818375E0,-4.593647461E0,-8.479866028E0,-1.517095184E0,9.762750772E0
3.310758375E0,-4.644092560E0,-8.429121552E0,-1.492546234E0,9.738859281E0
3.320698375E0,-4.633165283E0,-8.408165131E0,-1.455573120E0,9.709899820E0
3.330638375E0,-4.464915161E0,-8.396489410E0,-1.427431641E0,9.616343531E0
3.340578375E0,-4.146976318E0,-8.487051086E0,-1.365011444E0,9.544145062E0
3.350518375E0,-3.685935059E0,-8.625363464E0,-1.372944946E0,9.479872888E0
3.360459375E0,-3.186274109E0,-8.745114441E0,-1.498533783E0,9.427352374E0
3.370399375E0,-2.841540985E0,-8.880732422E0,-1.650916901E0,9.469281395E0
3.380339375E0,-2.605182495E0,-9.014404449E0,-1.801204376E0,9.554621950E0
3.390279375E0,-2.405048676E0,-9.085057526E0,-1.879192200E0,9.584043651E0
3.400219375E0,-2.249671783E0,-9.119635620E0,-1.927541656E0,9.588753507E0
3.410159375E0,-2.123783569E0,-9.037456512E0,-2.078727264E0,9.513526365E0
3.420100375E0,-2.007774811E0,-8.897647247E0,-2.212998047E0,9.385981386E0
3.430040375E0,-1.949695587E0,-8.784183197E0,-2.295476532E0,9.286140201E0
3.439980375E0,-2.017953644E0,-8.773704987E0,-2.242935791E0,9.277973758E0
3.449920375E0,-2.148332520E0,-8.782985687E0,-2.099084930E0,9.282366495E0
3.459860375E0,-2.363734589E0,-8.795559540E0,-1.832639008E0,9.290192385E0
3.469800375E0,-2.555336151E0,-8.822653198E0,-1.548829193E0,9.314924808E0
3.479741375E0,-2.687511292E0,-8.823850708E0,-1.273701324E0,9.311572011E0
3.489681375E0,-2.810106354E0,-8.824748840E0,-9.859996033E-1,9.313704152E0
3.499621375E0,-2.897524567E0,-8.813671875E0,-7.818241882E-1,9.310623481E0
3.509561375E0,-3.022364960E0,-8.811576233E0,-7.292834473E-1,9.344004495E0
3.519501375E0,-3.127147064E0,-8.865613861E0,-7.963439941E-1,9.434634156E0
3.529441375E0,-3.251388702E0,-9.022337952E0,-1.065035248E0,9.649269956E0
3.539381375E0,-3.378923492E0,-9.535770264E0,-1.594933319E0,1.024167226E1
3.549322375E0,-3.621568909E0,-1.044587769E1,-2.506537628E0,1.133643916E1
3.559262375E0,-3.999682617E0,-1.161150375E1,-3.852987671E0,1.287128566E1
3.569202375E0,-4.536616058E0,-1.269539978E1,-4.972659302E0,1.436946072E1
3.579142375E0,-4.966072998E0,-1.317470306E1,-5.115162964E0,1.497997243E1
3.589081958E0,-5.065166931E0,-1.264046402E1,-4.181105347E0,1.424496011E1
3.599021958E0,-4.777465210E0,-1.124701172E1,-2.633773041E0,1.250024827E1
3.608962958E0,-4.127067719E0,-9.345066833E0,-1.084644470E0,1.027323784E1
3.618902958E0,-3.494183807E0,-7.547005920E0,1.190025330E-1,8.317498449E0
3.628842958E0,-3.209326172E0,-6.402635651E0,8.577163696E-1,7.213126584E0
3.638782958E0,-3.018622742E0,-5.893394623E0,1.242865448E0,6.737128317E0
3.648722958E0,-2.697839813E0,-6.034401398E0,1.375639343E0,6.751645984E0
3.658662958E0,-2.446512451E0,-6.637497253E0,1.225800934E0,7.179441545E0
3.668602958E0,-2.347568207E0,-7.717800751E0,8.455915833E-1,8.111137407E0
3.678543958E0,-2.270029449E0,-9.238338776E0,1.655557251E-1,9.514585946E0
3.688483958E0,-2.114353180E0,-1.067804489E1,-9.222322083E-1,1.092436013E1
3.698423958E0,-2.035766602E0,-1.160581558E1,-2.263592834E0,1.199846463E1
3.708363958E0,-2.128723297E0,-1.189995392E1,-3.090772705E0,1.247770981E1
3.718303958E0,-2.303410034E0,-1.170610703E1,-2.777324524E0,1.224957840E1
3.728243958E0,-2.423610077E0,-1.108160568E1,-1.602118378E0,1.145611861E1
3.738184958E0,-2.355352020E0,-1.031310379E1,-3.998185730E-1,1.058620082E1
3.748124958E0,-2.161355438E0,-9.686955872E0,3.573069763E-1,9.931577904E0
3.758064958E0,-2.024539948E0,-9.207353210E0,6.786886597E-1,9.451705319E0
3.768004958E0,-1.965263214E0,-9.002728729E0,6.959028625E-1,9.240977484E0
3.777944958E0,-1.922452240E0,-9.087153168E0,5.411247253E-1,9.304030916E0
3.787884958E0,-1.952389984E0,-9.232500916E0,2.772235107E-1,9.440749583E0
3.797824958E0,-1.890718231E0,-9.251960449E0,-5.942642212E-2,9.443363759E0
3.807765958E0,-1.801054688E0,-9.279952240E0,-4.659809875E-1,9.464589259E0
3.817705958E0,-1.714384918E0,-9.297465820E0,-8.081694031E-1,9.488684003E0
3.827645958E0,-1.697919159E0,-9.316326599E0,-9.023236084E-1,9.512678838E0
3.837585958E0,-1.708097992E0,-9.333989868E0,-6.950047302E-1,9.514409976E0
3.847525958E0,-1.821262665E0,-9.283694458E0,-2.900967407E-1,9.465100982E0
3.857465958E0,-1.901645508E0,-9.147777100E0,7.963439941E-2,9.343683596E0
3.867406958E0,-1.881437531E0,-9.071286163E0,2.936892700E-1,9.268996344E0
3.877346958E0,-1.888323212E0,-9.087602234E0,4.041595459E-1,9.290512572E0
3.887286958E0,-1.968406677E0,-9.234746246E0,4.679269409E-1,9.453788590E0
3.897226958E0,-2.124082947E0,-9.479187927E0,5.215155029E-1,9.728242932E0
3.907166958E0,-2.252066803E0,-9.715097351E0,4.674778748E-1,9.983659499E0
3.917106958E0,-2.275418243E0,-1.005324417E1,3.055146790E-1,1.031206021E1
3.927047958E0,-2.194586334E0,-1.043510010E1,1.020877075E-1,1.066386164E1
3.936987958E0,-2.070644073E0,-1.071217392E1,-1.486408997E-1,1.091147703E1
3.946927958E0,-1.912872162E0,-1.082294357E1,-3.486250305E-1,1.099621421E1
3.956867958E0,-1.830543365E0,-1.076920532E1,-3.923341370E-1,1.093071811E1
3.966807958E0,-1.853296051E0,-1.065154999E1,-2.713856506E-1,1.081498375E1
3.976747958E0,-1.844763794E0,-1.048315018E1,-9.789642334E-2,1.064467824E1
3.986687958E0,-1.718576202E0,-1.025457550E1,1.496887207E-4,1.039758736E1
3.996628958E0,-1.565145264E0,-1.008482849E1,-1.103205872E-1,1.020615579E1
4.006568958E0,-1.472487946E0,-9.924511871E0,-3.787124634E-1,1.004029779E1
4.016508958E0,-1.620081024E0,-9.775421906E0,-6.719526672E-1,9.931518330E0
4.026448958E0,-2.012564850E0,-9.629475403E0,-9.141490173E-1,9.879923190E0
4.036388958E0,-2.461032257E0,-9.493258667E0,-9.854008484E-1,9.856452441E0
4.046328958E0,-2.704426117E0,-9.215586090E0,-9.280700684E-1,9.648951324E0
4.056268958E0,-2.691253510E0,-8.973539429E0,-7.529342651E-1,9.398625715E0
4.066209958E0,-2.681074677E0,-8.831484833E0,-5.084925842E-1,9.243476104E0
4.076149958E0,-2.678080902E0,-8.783434753E0,-1.701960754E-1,9.184215268E0
4.086089958E0,-2.629282379E0,-8.904233551E0,2.453398132E-1,9.287555792E0
4.096029958E0,-2.498304749E0,-9.063053284E0,5.843847656E-1,9.419233886E0
4.105969958E0,-2.303709412E0,-9.239087219E0,7.800279236E-1,9.553860647E0
4.115909958E0,-1.971250763E0,-9.554481354E0,7.918533325E-1,9.787797260E0
4.125850958E0,-1.693877563E0,-9.872869263E0,6.786886597E-1,1.004008899E1
4.135790958E0,-1.477727051E0,-1.005998016E1,5.282514954E-1,1.018164661E1
4.145730958E0,-1.286873932E0,-1.007345215E1,4.070036316E-1,1.016347060E1
4.155670958E0,-1.214125214E0,-1.000983444E1,3.115022278E-1,1.008800869E1
4.165610958E0,-1.250050507E0,-9.922565918E0,2.429447937E-1,1.000394736E1
4.175550958E0,-1.292412415E0,-9.786498871E0,2.052232361E-1,9.873601500E0
4.185490958E0,-1.314566345E0,-9.636810150E0,1.728904724E-1,9.727594033E0
4.195431958E0,-1.312620392E0,-9.486672363E0,7.050338745E-2,9.577311499E0
4.205371958E0,-1.317859497E0,-9.394763489E0,4.131408691E-2,9.486835169E0
4.215311958E0,-1.435514832E0,-9.430539093E0,5.059478760E-2,9.539304495E0
4.225251958E0,-1.573677521E0,-9.508377228E0,5.284011841E-2,9.637867530E0
4.235191958E0,-1.714684296E0,-9.601633301E0,8.143066406E-2,9.753877959E0
4.245131958E0,-1.847907257E0,-9.636061707E0,7.484436035E-2,9.811933964E0
4.255072958E0,-1.947749634E0,-9.594597931E0,1.095721436E-1,9.790916410E0
4.265012958E0,-1.978884888E0,-9.543254700E0,1.354682922E-1,9.747207155E0
4.274952958E0,-2.028431854E0,-9.511820068E0,1.769320679E-1,9.727310099E0
4.284892958E0,-2.071691895E0,-9.471104736E0,2.796185303E-1,9.699067932E0
4.294832958E0,-2.058818665E0,-9.525142365E0,3.058140564E-1,9.749902235E0
4.304772958E0,-2.041305084E0,-9.588909760E0,3.278182983E-1,9.809259996E0
4.314712958E0,-2.039359131E0,-9.682764587E0,2.990780640E-1,9.899715320E0
4.324653958E0,-2.130519562E0,-9.711504822E0,2.459385681E-1,9.945497739E0
4.334593958E0,-2.244881744E0,-9.664652252E0,1.935475159E-1,9.923832820E0
4.344533958E0,-2.438728638E0,-9.591454468E0,1.784289551E-1,9.898243939E0
4.354473958E0,-2.615361328E0,-9.558373260E0,2.062710571E-1,9.911869754E0
4.364413958E0,-2.717299347E0,-9.557774506E0,2.032772827E-1,9.938616146E0
4.374353958E0,-2.738405457E0,-9.525142365E0,1.772314453E-1,9.912548234E0
4.384294958E0,-2.670895844E0,-9.479786682E0,2.826123047E-1,9.852913775E0
4.394234958E0,-2.490670624E0,-9.507030029E0,2.318678284E-1,9.830606432E0
4.404174958E0,-2.366428986E0,-9.575737152E0,1.981878662E-1,9.865799845E0
4.414114958E0,-2.153571625E0,-9.616003418E0,1.957928467E-1,9.856151750E0
4.424054958E0,-1.942660217E0,-9.597891083E0,1.866618347E-1,9.794298576E0
4.433994958E0,-1.818867645E0,-9.621242523E0,2.019300842E-1,9.793741009E0
4.443934958E0,-1.736688538E0,-9.710756378E0,2.031275940E-1,9.866921371E0
4.453875958E0,-1.707199860E0,-9.760902100E0,2.432441711E-1,9.912058761E0
4.463815958E0,-1.692230988E0,-9.742041321E0,2.369572449E-1,9.890761525E0
4.473755958E0,-1.728455658E0,-9.696086884E0,2.327659607E-1,9.851692231E0
4.483695958E0,-1.817370758E0,-9.623338165E0,1.919009399E-1,9.795320305E0
4.493635958E0,-2.045646057E0,-9.482481079E0,1.133143616E-1,9.701286273E0
4.503575958E0,-2.352058868E0,-9.455387421E0,5.388793945E-2,9.743686987E0
4.513515958E0,-2.567760315E0,-9.421108704E0,1.097218323E-1,9.765383818E0
4.523456958E0,-2.498604126E0,-9.515262909E0,8.861572266E-2,9.838246975E0
4.533396958E0,-2.297721863E0,-9.677226105E0,1.004411316E-1,9.946774314E0
4.543336958E0,-2.066901855E0,-9.820777588E0,1.847158813E-1,1.003762301E1
4.553276958E0,-1.842668152E0,-9.791737976E0,2.981799316E-1,9.968072521E0
4.563216958E0,-1.728006592E0,-9.745035095E0,3.611988831E-1,9.903644805E0
4.573156958E0,-1.771715698E0,-9.660460968E0,4.113446045E-1,9.830192623E0
4.583097958E0,-1.884730682E0,-9.651479645E0,4.589456177E-1,9.844485774E0
4.593037750E0,-1.970202942E0,-9.618099060E0,4.718188477E-1,9.829147582E0
4.602977750E0,-2.032922516E0,-9.544152832E0,4.561015320E-1,9.768912726E0
4.612917750E0,-2.123933258E0,-9.513167267E0,4.818479919E-1,9.759283858E0
4.622857750E0,-2.187401276E0,-9.568851471E0,4.695735168E-1,9.826909082E0
4.632797750E0,-2.212998047E0,-9.682016144E0,4.171824646E-1,9.940464686E0
4.642737750E0,-2.233505402E0,-9.752519531E0,4.953199768E-1,1.001726138E1
4.652678750E0,-2.096839600E0,-9.792187042E0,5.435197449E-1,1.002891206E1
4.662618750E0,-1.997446289E0,-9.784702606E0,5.490582275E-1,1.000158296E1
4.672558750E0,-1.961371307E0,-9.601034546E0,5.556445312E-1,9.815069159E0
4.682498750E0,-1.948198700E0,-9.394164734E0,5.721102905E-1,9.611093559E0
4.692438750E0,-1.923949127E0,-9.267528076E0,5.712121582E-1,9.482348877E0
4.702378750E0,-2.030826874E0,-9.250463562E0,5.433700562E-1,9.486336749E0
4.712318750E0,-2.305505676E0,-9.345815277E0,5.593867493E-1,9.642226566E0
4.722259750E0,-2.586022339E0,-9.450148315E0,6.423143005E-1,9.818624261E0
4.732199750E0,-2.736758881E0,-9.544901276E0,7.086264038E-1,9.954754689E0
4.742139750E0,-2.799628143E0,-9.625882874E0,7.279362488E-1,1.005114073E1
4.752079750E0,-2.909349976E0,-9.699978790E0,6.930587769E-1,1.015057813E1
4.762019750E0,-2.996917877E0,-9.684560852E0,6.285429382E-1,1.015713059E1
4.771959750E0,-2.963387604E0,-9.616751862E0,4.855902100E-1,1.007469009E1
4.781900750E0,-2.893482971E0,-9.546547852E0,3.324586487E-1,9.980949270E0
4.791840750E0,-2.794688416E0,-9.472601624E0,1.841171265E-1,9.877973678E0
4.801780750E0,-2.680026855E0,-9.407337341E0,1.480421448E-1,9.782763223E0
4.811720750E0,-2.530637512E0,-9.387728119E0,1.844165039E-1,9.724586104E0
4.821660750E0,-2.350561981E0,-9.416468353E0,2.561174011E-1,9.708790553E0
4.831600750E0,-2.203567657E0,-9.472002869E0,3.483256531E-1,9.731180788E0
4.841540750E0,-2.117047577E0,-9.476194153E0,4.209246826E-1,9.718915765E0
4.851481750E0,-2.076032867E0,-9.489067383E0,5.423222351E-1,9.728639456E0
4.861421750E0,-2.132764893E0,-9.555529175E0,7.173083496E-1,9.816891319E0
4.871361750E0,-2.252815247E0,-9.616153107E0,8.665480042E-1,9.914458258E0
4.881301750E0,-2.403102722E0,-9.650880890E0,9.996212769E-1,9.995681435E0
4.891241750E0,-2.553240509E0,-9.681267700E0,1.076261902E0,1.006997125E1
4.901181750E0,-2.693049774E0,-9.648635559E0,1.088686066E0,1.007640425E1
4.911121750E0,-2.750230865E0,-9.561516724E0,1.038390656E0,1.000323083E1
4.921062750E0,-2.702629852E0,-9.496252441E0,9.752220154E-1,9.921394888E0
4.931002750E0,-2.686014404E0,-9.382788391E0,8.906478882E-1,9.800236989E0
4.940942750E0,-2.706521759E0,-9.281748505E0,7.966433716E-1,9.701069838E0
4.950882750E0,-2.697241058E0,-9.180259552E0,7.421566772E-1,9.597034506E0
4.960822750E0,-2.628983002E0,-9.134155426E0,7.125183105E-1,9.531633087E0
4.970762750E0,-2.593357086E0,-9.139843597E0,7.345225525E-1,9.528996030E0
4.980702750E0,-2.606230316E0,-9.161548462E0,7.819738770E-1,9.557085844E0
4.990643750E0,-2.616409149E0,-9.226513367E0,8.126600647E-1,9.624685040E0
5.000583750E0,-2.639760590E0,-9.310488739E0,8.041278076E-1,9.710826847E0
5.010523750E0,-2.688409424E0,-9.391170959E0,8.003855896E-1,9.801135358E0
5.020463750E0,-2.730921021E0,-9.444759521E0,7.735913086E-1,9.862041145E0
5.030403750E0,-2.745440826E0,-9.466614075E0,7.146139526E-1,9.882555361E0
5.040343750E0,-2.717449036E0,-9.473200378E0,6.427633667E-1,9.876193569E0
5.050284750E0,-2.578687592E0,-9.479487305E0,5.677693176E-1,9.840359305E0
5.060224750E0,-2.432591400E0,-9.502689056E0,5.195695496E-1,9.822858685E0
5.070164750E0,-2.244282990E0,-9.560917969E0,4.924758911E-1,9.833132311E0
5.080104750E0,-2.060614929E0,-9.590107269E0,4.860392761E-1,9.821024667E0
5.090044750E0,-1.920805664E0,-9.597142639E0,5.300477600E-1,9.801815743E0
5.099984750E0,-1.847009125E0,-9.552535400E0,6.143225098E-1,9.748834157E0
5.109924750E0,-1.862127686E0,-9.500743103E0,7.000941467E-1,9.706789935E0
5.119865750E0,-2.000889130E0,-9.448352051E0,8.481362915E-1,9.695063123E0
5.129805750E0,-2.240391083E0,-9.431586914E0,9.834548950E-1,9.743786094E0
5.139745750E0,-2.487078094E0,-9.413025513E0,1.040186920E0,9.791455233E0
5.149685750E0,-2.674488373E0,-9.432934113E0,1.011895752E0,9.856828447E0
5.159625750E0,-2.821482697E0,-9.449549561E0,9.785151672E-1,9.910209051E0
5.169565750E0,-2.890938263E0,-9.409133606E0,9.044192505E-1,9.884699967E0
5.179505750E0,-2.862198029E0,-9.424850922E0,8.165519714E-1,9.883660737E0
5.189446750E0,-2.943179626E0,-9.408534851E0,7.499404907E-1,9.886619498E0
5.199386750E0,-3.029699707E0,-9.374256134E0,6.644682312E-1,9.874070914E0
5.209326750E0,-3.066822510E0,-9.317524109E0,5.477110291E-1,9.824542900E0
5.219266750E0,-3.040477295E0,-9.221274261E0,4.231700134E-1,9.718820610E0
5.229206750E0,-2.958148499E0,-9.207502899E0,3.418890381E-1,9.677067753E0
5.239146750E0,-2.783461761E0,-9.291927338E0,2.987786865E-1,9.704475345E0
5.249086750E0,-2.608176270E0,-9.387578430E0,3.549119568E-1,9.749624338E0
5.259027750E0,-2.437381439E0,-9.426347809E0,4.466711426E-1,9.746608456E0
5.268967750E0,-2.314786377E0,-9.449549561E0,5.336402893E-1,9.743561712E0
5.278907750E0,-2.223326569E0,-9.446705475E0,6.655160522E-1,9.727606950E0
5.288847750E0,-2.215393066E0,-9.441166992E0,7.914042664E-1,9.729846932E0
5.298787750E0,-2.274969177E0,-9.478888550E0,9.039701843E-1,9.789891470E0
5.308727750E0,-2.438578949E0,-9.505084076E0,9.562115479E-1,9.859393039E0
5.318667750E0,-2.594105530E0,-9.482930145E0,9.735754395E-1,9.879433019E0
5.328608750E0,-2.699486389E0,-9.446106720E0,9.770182800E-1,9.872726252E0
5.338548750E0,-2.834804993E0,-9.394015045E0,9.544152832E-1,9.858729459E0
5.348488750E0,-2.921923828E0,-9.365424500E0,8.710386658E-1,9.849239731E0
5.358428750E0,-2.935096436E0,-9.366622009E0,7.906558228E-1,9.847514183E0
5.368368750E0,-2.906655579E0,-9.346563721E0,6.791377258E-1,9.811632285E0
5.378308750E0,-2.845283203E0,-9.339827728E0,5.828878784E-1,9.780990583E0
5.388249750E0,-2.757266235E0,-9.375453644E0,5.081932068E-1,9.785699181E0
5.398189750E0,-2.677033081E0,-9.415121155E0,4.815486145E-1,9.800148037E0
5.408129750E0,-2.621348877E0,-9.439370728E0,4.950205994E-1,9.809089410E0
5.418069750E0,-2.594255219E0,-9.465416565E0,5.134323120E-1,9.827913493E0
5.428009750E0,-2.574196930E0,-9.477241974E0,5.418731689E-1,9.835559557E0
5.437949750E0,-2.580034790E0,-9.472302246E0,6.288423157E-1,9.837506392E0
5.447889750E0,-2.627635803E0,-9.396260376E0,7.180567932E-1,9.783137765E0
5.457830750E0,-2.680026855E0,-9.341324615E0,7.810757446E-1,9.749511210E0
5.467770750E0,-2.714754639E0,-9.296717377E0,8.214916992E-1,9.719757988E0
5.477710750E0,-2.773731995E0,-9.283993835E0,8.737330627E-1,9.728799524E0
5.487650750E0,-2.816093903E0,-9.317224731E0,9.030720520E-1,9.775305657E0
5.497590750E0,-2.851869507E0,-9.335187378E0,8.872050476E-1,9.801327250E0
5.507530750E0,-2.831511841E0,-9.325457611E0,8.517288208E-1,9.782998566E0
5.517470750E0,-2.805166626E0,-9.337283020E0,8.354127502E-1,9.785281215E0
5.527411750E0,-2.728975067E0,-9.336384888E0,8.072712708E-1,9.760485367E0
5.537351750E0,-2.689756622E0,-9.349707184E0,7.617658997E-1,9.758693683E0
5.547291750E0,-2.650388489E0,-9.396559753E0,7.387138367E-1,9.791097613E0
5.557231750E0,-2.656825104E0,-9.409283295E0,7.364685059E-1,9.804882335E0
5.567171750E0,-2.662363586E0,-9.427395630E0,7.276368713E-1,9.823106619E0
5.577111750E0,-2.682721252E0,-9.431736603E0,7.391629028E-1,9.833667193E0
5.587052500E0,-2.709814911E0,-9.456285553E0,7.562274170E-1,9.865916745E0
5.596993500E0,-2.692151642E0,-9.439819794E0,7.649093628E-1,9.845961839E0
5.606933500E0,-2.692301331E0,-9.435778198E0,7.556286621E-1,9.841411044E0
5.616873500E0,-2.677033081E0,-9.423952789E0,7.424560547E-1,9.824898640E0
5.626813500E0,-2.708767090E0,-9.418563995E0,7.188052368E-1,9.826670232E0
5.636753500E0,-2.702629852E0,-9.427994385E0,7.143145752E-1,9.833693688E0
5.646693500E0,-2.719694366E0,-9.454040222E0,6.803352356E-1,9.860956850E0
5.656633500E0,-2.720442810E0,-9.460027771E0,6.604266357E-1,9.865551067E0
5.666574500E0,-2.728226624E0,-9.474397888E0,6.515950012E-1,9.880891250E0
5.676514500E0,-2.765349426E0,-9.452243958E0,6.614744568E-1,9.870644444E0
5.686454500E0,-2.792742462E0,-9.388177185E0,6.738986206E-1,9.817913254E0
5.696394500E0,-2.798430634E0,-9.330996094E0,6.966513062E-1,9.766474551E0
5.706334500E0,-2.834804993E0,-9.317374420E0,7.372169495E-1,9.766937814E0
5.716274500E0,-2.833607483E0,-9.304201813E0,7.702981567E-1,9.756580446E0
5.726214500E0,-2.848726044E0,-9.319769440E0,7.985893250E-1,9.778092216E0
5.736155500E0,-2.846630402E0,-9.350605316E0,8.068222046E-1,9.807552523E0
5.746095500E0,-2.818638611E0,-9.359287262E0,8.033793640E-1,9.807466547E0
5.756035500E0,-2.768941956E0,-9.361682281E0,7.794291687E-1,9.793653278E0
5.765975500E0,-2.728675690E0,-9.383985901E0,7.457492065E-1,9.801071589E0
5.775915500E0,-2.663261719E0,-9.426198120E0,7.183561707E-1,9.821517682E0
5.785855500E0,-2.615960083E0,-9.443861389E0,7.069798279E-1,9.824947103E0
5.795796500E0,-2.533780975E0,-9.446256409E0,6.605763245E-1,9.802457205E0
5.805736500E0,-2.565514984E0,-9.415420532E0,6.514453125E-1,9.780408577E0
5.815676500E0,-2.576292572E0,-9.431437225E0,6.203100586E-1,9.796635959E0
5.825616500E0,-2.608625336E0,-9.428593140E0,5.984555054E-1,9.801094007E0
5.835556500E0,-2.649490356E0,-9.420210571E0,5.999523926E-1,9.804086354E0
5.845496500E0,-2.662213898E0,-9.430389404E0,5.697152710E-1,9.815508272E0
5.855436500E0,-2.624492340E0,-9.414971466E0,5.559439087E-1,9.789725296E0
5.865377500E0,-2.555485840E0,-9.414073334E0,5.408253479E-1,9.769737799E0
5.875317500E0,-2.548450470E0,-9.428742828E0,5.444178772E-1,9.782238085E0
5.885257500E0,-2.516267395E0,-9.456135864E0,5.590873718E-1,9.801157369E0
5.895197500E0,-2.472408600E0,-9.508975983E0,5.713618469E-1,9.841741862E0
5.905137500E0,-2.435435486E0,-9.515861664E0,5.816903687E-1,9.839783173E0
5.915077500E0,-2.435136108E0,-9.491013336E0,6.225553894E-1,9.818187064E0
5.925017500E0,-2.488724670E0,-9.451046448E0,6.721023560E-1,9.796313134E0
5.934958500E0,-2.544259186E0,-9.425299988E0,7.476951599E-1,9.791250314E0
5.944898500E0,-2.628533936E0,-9.375303955E0,7.940986633E-1,9.769140576E0
5.954838500E0,-2.678679657E0,-9.361831970E0,8.286767578E-1,9.772713426E0
5.964778500E0,-2.753673706E0,-9.355694733E0,8.446934509E-1,9.789037227E0
5.974718500E0,-2.805915070E0,-9.346414032E0,8.434959412E-1,9.794901737E0
5.984658500E0,-2.877316589E0,-9.337133331E0,8.554710388E-1,9.807794874E0
5.994598500E0,-2.911445618E0,-9.340127106E0,8.524772644E-1,9.820448433E0
6.004539500E0,-2.911595306E0,-9.329349518E0,8.217910767E-1,9.807624087E0
6.014479500E0,-2.912643127E0,-9.349407806E0,8.217910767E-1,9.827016683E0
6.024419500E0,-2.842588806E0,-9.376052399E0,7.744894409E-1,9.828046784E0
6.034359500E0,-2.777923279E0,-9.401798859E0,7.023394775E-1,9.828731366E0
6.044299500E0,-2.752925262E0,-9.431886292E0,6.602769470E-1,9.847590678E0
6.054239500E0,-2.701582031E0,-9.420959015E0,5.987548828E-1,9.818936890E0
6.064179500E0,-2.676883392E0,-9.427695007E0,5.752537537E-1,9.817232539E0
6.074120500E0,-2.659968567E0,-9.438921661E0,5.631289673E-1,9.822718012E0
6.084060500E0,-2.644700317E0,-9.445807343E0,5.769003296E-1,9.826012931E0
6.094000500E0,-2.597997437E0,-9.428443451E0,5.876779175E-1,9.797474262E0
6.103940500E0,-2.567311249E0,-9.427844696E0,6.153703308E-1,9.790506795E0
6.113880500E0,-2.546803894E0,-9.415719910E0,6.706054688E-1,9.777100960E0
6.123820500E0,-2.530038757E0,-9.421408081E0,7.168592834E-1,9.781508758E0
6.133760500E0,-2.555036774E0,-9.462572479E0,7.668553162E-1,9.831406711E0
6.143701500E0,-2.533331909E0,-9.451645203E0,7.574249268E-1,9.814533108E0
6.153641500E0,-2.527793427E0,-9.443112946E0,7.328759766E-1,9.803021417E0
6.163581500E0,-2.532583466E0,-9.439670105E0,7.300318909E-1,9.800729425E0
6.173521500E0,-2.540516968E0,-9.436376953E0,6.987469482E-1,9.797330441E0
6.183461500E0,-2.562670898E0,-9.451196136E0,6.828799438E-1,9.816247530E0
6.193401500E0,-2.610571289E0,-9.433532867E0,6.756948853E-1,9.811380555E0
6.203341500E0,-2.618205414E0,-9.417067108E0,6.664141846E-1,9.796951586E0
6.213282500E0,-2.659220123E0,-9.402996368E0,6.608757019E-1,9.794107875E0
6.223222500E0,-2.703827362E0,-9.385632477E0,6.628216553E-1,9.789796318E0
6.233162500E0,-2.758613434E0,-9.367370453E0,6.804849243E-1,9.788801613E0
6.243102500E0,-2.823728027E0,-9.347910919E0,6.927593994E-1,9.789626863E0
6.253042500E0,-2.880310364E0,-9.360933838E0,7.101232910E-1,9.819752807E0
6.262982500E0,-2.873724060E0,-9.357341309E0,7.490423584E-1,9.817290400E0
6.272922500E0,-2.857258301E0,-9.361233215E0,7.473957825E-1,9.816069110E0
6.282863500E0,-2.859204254E0,-9.350305939E0,7.520361328E-1,9.806570678E0
6.292803500E0,-2.867437134E0,-9.363628235E0,7.704478455E-1,9.823101309E0
6.302743500E0,-2.839894409E0,-9.335187378E0,7.812254333E-1,9.788822034E0
6.312683500E0,-2.834206238E0,-9.335037689E0,7.878117371E-1,9.787558480E0
6.322623500E0,-2.830014954E0,-9.361382904E0,7.614665222E-1,9.809398849E0
6.332563500E0,-2.825524292E0,-9.386380920E0,7.366181946E-1,9.830073279E0
6.342503500E0,-2.816093903E0,-9.398805084E0,7.111711121E-1,9.837361752E0
6.352444500E0,-2.811603241E0,-9.403146057E0,6.985972595E-1,9.839324504E0
6.362384500E0,-2.782264252E0,-9.385333099E0,6.743476868E-1,9.812248293E0
6.372324500E0,-2.747386780E0,-9.368118896E0,6.914122009E-1,9.787126065E0
6.382264500E0,-2.721790009E0,-9.373956757E0,7.020401001E-1,9.786320372E0
6.392204500E0,-2.710114288E0,-9.388177185E0,7.243437195E-1,9.798329661E0
6.402144500E0,-2.698588257E0,-9.403295746E0,7.168592834E-1,9.809089494E0
6.412084500E0,-2.649340668E0,-9.426647186E0,7.155120850E-1,9.817975387E0
6.422025500E0,-2.639910278E0,-9.425000610E0,7.032376099E-1,9.812966214E0
6.431965500E0,-2.653831329E0,-9.425898743E0,7.484436035E-1,9.820924379E0
6.441905500E0,-2.684367828E0,-9.401499481E0,7.601193237E-1,9.806722415E0
6.451845500E0,-2.706072693E0,-9.384734344E0,7.782316589E-1,9.798046369E0
6.461785500E0,-2.707270203E0,-9.380842438E0,7.593708801E-1,9.793169095E0
6.471725500E0,-2.731070709E0,-9.380543060E0,7.400610352E-1,9.798011312E0
6.481665500E0,-2.780018921E0,-9.406738586E0,7.453001404E-1,9.837210394E0
6.491606500E0,-2.812052307E0,-9.422006836E0,7.072792053E-1,9.858097934E0
6.501546500E0,-2.794389038E0,-9.414672089E0,6.715036011E-1,9.843555136E0
6.511486500E0,-2.763104095E0,-9.389075317E0,6.369255066E-1,9.807912808E0
6.521426500E0,-2.706372070E0,-9.385333099E0,6.087840271E-1,9.786702466E0
6.531366500E0,-2.650538177E0,-9.439370728E0,5.896238708E-1,9.822154991E0
6.541306500E0,-2.626587982E0,-9.486372986E0,5.610333252E-1,9.859259366E0
6.551246500E0,-2.616259460E0,-9.480385437E0,5.619314575E-1,9.850801417E0
6.561187500E0,-2.624642029E0,-9.481582947E0,5.839356995E-1,9.855462539E0
6.571127500E0,-2.641856232E0,-9.453291779E0,6.007008362E-1,9.833868582E0
6.581067500E0,-2.614163818E0,-9.433383179E0,6.295907593E-1,9.809126118E0
6.591007208E0,-2.606978760E0,-9.391769714E0,6.598278809E-1,9.769188782E0
6.600947208E0,-2.612068176E0,-9.376202087E0,6.735992432E-1,9.756526107E0
6.610887208E0,-2.590063934E0,-9.378896484E0,6.848258972E-1,9.754030806E0
6.620827208E0,-2.581681366E0,-9.403445435E0,7.147636414E-1,9.777563693E0
6.630768208E0,-2.595303040E0,-9.404792633E0,7.307803345E-1,9.783647696E0
6.640708208E0,-2.582729187E0,-9.420210571E0,7.402107239E-1,9.795854694E0
6.650648208E0,-2.572250977E0,-9.398805084E0,7.020401001E-1,9.769691520E0
6.660588208E0,-2.567610626E0,-9.394164734E0,6.514453125E-1,9.760498777E0
6.670528208E0,-2.564018097E0,-9.446106720E0,6.165678406E-1,9.807307320E0
6.680468208E0,-2.549797668E0,-9.463620300E0,5.785469055E-1,9.818161430E0
6.690408208E0,-2.533780975E0,-9.483229523E0,5.703140259E-1,9.832443557E0
6.700349208E0,-2.487078094E0,-9.474697266E0,5.480104065E-1,9.811002045E0
6.710289208E0,-2.484084320E0,-9.494905243E0,5.584886169E-1,9.830351470E0
6.720229208E0,-2.490970001E0,-9.486372986E0,5.869294739E-1,9.825512210E0
6.730169208E0,-2.530338135E0,-9.479487305E0,6.194119263E-1,9.830918664E0
6.740109208E0,-2.578986969E0,-9.452693024E0,6.343807983E-1,9.818707562E0
6.750049208E0,-2.613415375E0,-9.413025513E0,6.496490479E-1,9.790660504E0
6.759989208E0,-2.637215881E0,-9.372010803E0,6.707551575E-1,9.759067916E0
6.769929208E0,-2.683769073E0,-9.370813293E0,6.858737183E-1,9.771651906E0
6.779870208E0,-2.727029114E0,-9.362879791E0,7.054829407E-1,9.777418471E0
6.789810208E0,-2.758463745E0,-9.389973450E0,7.108717346E-1,9.812546165E0
6.799750208E0,-2.750979309E0,-9.394613800E0,7.191046143E-1,9.815486084E0
6.809690208E0,-2.724484406E0,-9.399852905E0,7.246430969E-1,9.813519121E0
6.819630208E0,-2.670895844E0,-9.396110687E0,7.153623962E-1,9.794504786E0
6.829570208E0,-2.650388489E0,-9.406588898E0,6.914122009E-1,9.797271287E0
6.839510208E0,-2.624342651E0,-9.411079559E0,6.743476868E-1,9.793382338E0
6.849451208E0,-2.593057709E0,-9.400152283E0,6.679110718E-1,9.774094148E0
6.859391208E0,-2.574346619E0,-9.410181427E0,6.584806824E-1,9.778157895E0
6.869331208E0,-2.573598175E0,-9.438023529E0,6.477030945E-1,9.804040749E0
6.879271208E0,-2.613714752E0,-9.459728394E0,6.183641052E-1,9.833633116E0
6.889211208E0,-2.612367554E0,-9.428742828E0,6.186634827E-1,9.803489178E0
6.899151208E0,-2.604284363E0,-9.428144073E0,6.170169067E-1,9.800658528E0
6.909091208E0,-2.599344635E0,-9.445657654E0,6.044430542E-1,9.815416061E0
6.919032208E0,-2.605930939E0,-9.467362518E0,6.020480347E-1,9.837900739E0
6.928972208E0,-2.592608643E0,-9.446106720E0,6.306385803E-1,9.815714786E0
6.938912208E0,-2.571053467E0,-9.421408081E0,6.568341064E-1,9.787986371E0
6.948852208E0,-2.526745605E0,-9.431287537E0,6.444099426E-1,9.785136286E0
6.958792208E0,-2.502496033E0,-9.444759521E0,6.442602539E-1,9.791886442E0
6.968732208E0,-2.507735138E0,-9.414223022E0,6.625222778E-1,9.765002120E0
6.978672208E0,-2.509531403E0,-9.403295746E0,6.900650024E-1,9.756839060E0
6.988613208E0,-2.483485565E0,-9.444310455E0,6.973997498E-1,9.790253671E0
6.998553208E0,-2.463576965E0,-9.494755554E0,6.924600220E-1,9.833569819E0
7.008493208E0,-2.441423035E0,-9.532926178E0,6.637197876E-1,9.862948439E0
7.018433208E0,-2.397863617E0,-9.535321198E0,6.583309937E-1,9.854212295E0
7.028373208E0,-2.399360504E0,-9.529483337E0,6.444099426E-1,9.848007295E0
7.038313208E0,-2.402503967E0,-9.449848938E0,6.462062073E-1,9.771860249E0
7.048253208E0,-2.402953033E0,-9.436676331E0,6.292913818E-1,9.758127438E0
7.058194208E0,-2.450254669E0,-9.428892517E0,6.099815369E-1,9.761139253E0
7.068134208E0,-2.484683075E0,-9.455537109E0,6.209088135E-1,9.796242125E0
7.078074208E0,-2.499651947E0,-9.483528900E0,5.999523926E-1,9.825758145E0
7.088014208E0,-2.551294556E0,-9.495204620E0,6.029461670E-1,9.850459825E0
7.097954208E0,-2.553988953E0,-9.465715942E0,6.215075684E-1,9.823894825E0
7.107894208E0,-2.565065918E0,-9.431736603E0,6.376739502E-1,9.795092984E0
7.117834208E0,-2.590363312E0,-9.427545319E0,6.688092041E-1,9.799790741E0
7.127775208E0,-2.606380005E0,-9.400601349E0,6.959028625E-1,9.780020616E0
7.137715208E0,-2.630330200E0,-9.403595123E0,7.023394775E-1,9.789766031E0
7.147655208E0,-2.650538177E0,-9.407636719E0,7.114704895E-1,9.799753646E0
7.157595208E0,-2.665507050E0,-9.431437225E0,6.944059753E-1,9.825433101E0
7.167535208E0,-2.682421875E0,-9.438771973E0,6.756948853E-1,9.835769774E0
7.177475208E0,-2.718945923E0,-9.433832245E0,6.608757019E-1,9.840051547E0
7.187415208E0,-2.706521759E0,-9.416917419E0,6.509962463E-1,9.819744896E0
7.197356208E0,-2.700833588E0,-9.400900726E0,6.361770630E-1,9.801844612E0
7.207296208E0,-2.671494598E0,-9.392667847E0,6.265969849E-1,9.785280601E0
7.217236208E0,-2.650238800E0,-9.381291504E0,6.288423157E-1,9.768717349E0
7.227176208E0,-2.649041290E0,-9.381291504E0,6.129753113E-1,9.767383927E0
7.237116208E0,-2.663710785E0,-9.396559753E0,6.182144165E-1,9.786361909E0
7.247056208E0,-2.644850006E0,-9.409133606E0,6.179150391E-1,9.793306171E0
7.256996208E0,-2.673739929E0,-9.442065125E0,6.280938721E-1,9.833411460E0
7.266937208E0,-2.711012421E0,-9.460327148E0,6.427633667E-1,9.862074977E0
7.276877208E0,-2.723586273E0,-9.460925903E0,6.318360901E-1,9.865407137E0
7.286817208E0,-2.712958374E0,-9.421408081E0,6.298901367E-1,9.824450873E0
7.296757208E0,-2.725981293E0,-9.386081543E0,6.512956238E-1,9.795595272E0
7.306697208E0,-2.719993744E0,-9.348659363E0,6.288423157E-1,9.756599844E0
7.316637208E0,-2.716251526E0,-9.351952515E0,6.218069458E-1,9.758262246E0
7.326577208E0,-2.737357635E0,-9.351054382E0,5.875282288E-1,9.761174842E0
7.336518208E0,-2.702779541E0,-9.350455627E0,5.519023132E-1,9.748878595E0
7.346458208E0,-2.695594482E0,-9.373807068E0,5.297483826E-1,9.768066437E0
7.356398208E0,-2.658621368E0,-9.414522400E0,5.243595886E-1,9.796757248E0
7.366338208E0,-2.610571289E0,-9.477391663E0,5.119354248E-1,9.843683917E0
7.376278208E0,-2.565664673E0,-9.514215088E0,5.063969421E-1,9.867084768E0
7.386218208E0,-2.547252960E0,-9.529932404E0,5.230123901E-1,9.878342534E0
7.396158208E0,-2.536475372E0,-9.511670380E0,5.260061646E-1,9.858106472E0
7.406098208E0,-2.560724945E0,-9.469607849E0,5.243595886E-1,9.823733406E0
7.416039208E0,-2.584226074E0,-9.441765747E0,5.466632080E-1,9.804285057E0
7.425979208E0,-2.622247009E0,-9.418114929E0,5.736071777E-1,9.793165647E0
7.435919208E0,-2.634521484E0,-9.402098236E0,5.667214966E-1,9.780660916E0
7.445859208E0,-2.657872925E0,-9.399703217E0,5.789959717E-1,9.785394493E0
7.455799208E0,-2.660866699E0,-9.402547302E0,6.071374512E-1,9.790644680E0
7.465739208E0,-2.658771057E0,-9.413624268E0,6.029461670E-1,9.800455574E0
7.475679208E0,-2.630180511E0,-9.416917419E0,6.191125488E-1,9.796911940E0
7.485620208E0,-2.605481873E0,-9.410181427E0,6.438111877E-1,9.785425035E0
7.495560208E0,-2.599793701E0,-9.411678314E0,6.559359741E-1,9.786156957E0
7.505500208E0,-2.620001678E0,-9.413773956E0,6.686595154E-1,9.794419556E0
7.515440208E0,-2.647245026E0,-9.415719910E0,6.730004883E-1,9.803908267E0
7.525380208E0,-2.652484131E0,-9.417965240E0,6.682104492E-1,9.807152825E0
7.535320208E0,-2.647694092E0,-9.430090027E0,6.676116943E-1,9.817463384E0
7.545260208E0,-2.675087128E0,-9.422605591E0,6.481521606E-1,9.816398957E0
7.555201208E0,-2.701881409E0,-9.419911194E0,6.224057007E-1,9.819484656E0
7.565141208E0,-2.698288879E0,-9.415420532E0,5.939648438E-1,9.812425842E0
7.575081208E0,-2.700234833E0,-9.385183411E0,5.767506409E-1,9.782922728E0
7.585021208E0,-2.681673431E0,-9.370813293E0,5.712121582E-1,9.763697942E0
7.594961458E0,-2.686313782E0,-9.377100220E0,5.664221191E-1,9.770727930E0
7.604901458E0,-2.661615143E0,-9.399703217E0,5.574407959E-1,9.785159987E0
7.614841458E0,-2.632575531E0,-9.407337341E0,5.647755432E-1,9.785061124E0
7.624782458E0,-2.626737671E0,-9.422306213E0,5.686674500E-1,9.798111442E0
7.634722458E0,-2.581381989E0,-9.440418549E0,5.807922363E-1,9.804200884E0
7.644662458E0,-2.577490082E0,-9.441166992E0,5.996530151E-1,9.805033046E0
7.654602458E0,-2.594255219E0,-9.458231506E0,6.291416931E-1,9.827722149E0
7.664542458E0,-2.620450745E0,-9.474996643E0,6.643185425E-1,9.853103197E0
7.674482458E0,-2.643353119E0,-9.452842712E0,6.589297485E-1,9.837567762E0
7.684422458E0,-2.648143158E0,-9.418863373E0,6.583309937E-1,9.806174031E0
7.694363458E0,-2.657423859E0,-9.405391388E0,6.405180359E-1,9.794567478E0
7.704303458E0,-2.704126740E0,-9.422006836E0,6.265969849E-1,9.822379448E0
7.714243458E0,-2.732118530E0,-9.414372711E0,6.390211487E-1,9.823605918E0
7.724183458E0,-2.723885651E0,-9.384285278E0,6.261479187E-1,9.791650751E0
7.734123458E0,-2.688559113E0,-9.401200104E0,6.233038330E-1,9.797929432E0
7.744063458E0,-2.665057983E0,-9.430389404E0,6.156697083E-1,9.819054311E0
7.754003458E0,-2.647544403E0,-9.444609833E0,6.331832886E-1,9.829092905E0
7.763943458E0,-2.604284363E0,-9.441915436E0,6.399192810E-1,9.815373698E0
7.773884458E0,-2.552042999E0,-9.451196136E0,6.445596313E-1,9.810886249E0
7.783824458E0,-2.546354828E0,-9.449399872E0,6.373745728E-1,9.807207920E0
7.793764458E0,-2.536175995E0,-9.441765747E0,6.439608765E-1,9.797643324E0
7.803704458E0,-2.537523193E0,-9.443112946E0,6.313870239E-1,9.798472107E0
7.813644458E0,-2.526595917E0,-9.443562012E0,6.029461670E-1,9.794288870E0
7.823584458E0,-2.520907745E0,-9.446406097E0,6.233038330E-1,9.796839883E0
7.833524458E0,-2.534379730E0,-9.484576721E0,6.090834045E-1,9.836221774E0
7.843465458E0,-2.552042999E0,-9.503437500E0,5.804928589E-1,9.857241995E0
7.853405458E0,-2.537672882E0,-9.497150574E0,5.697152710E-1,9.846838486E0
7.863345458E0,-2.495310974E0,-9.463769989E0,5.197192383E-1,9.801001344E0
7.873285458E0,-2.484234009E0,-9.454638977E0,5.195695496E-1,9.789360005E0
7.883225458E0,-2.490221558E0,-9.451794891E0,5.254074097E-1,9.788446405E0
7.893165458E0,-2.513572998E0,-9.497000885E0,5.339396667E-1,9.838504286E0
7.903105458E0,-2.497256927E0,-9.495354309E0,5.507048035E-1,9.833683003E0
7.913046458E0,-2.497855682E0,-9.468260651E0,5.257067871E-1,9.806304624E0
7.922986458E0,-2.493065643E0,-9.475445709E0,5.557942200E-1,9.813682026E0
7.932926458E0,-2.494712219E0,-9.450148315E0,5.890251160E-1,9.791621052E0
7.942866458E0,-2.515818329E0,-9.426796875E0,6.309379578E-1,9.777112247E0
7.952806458E0,-2.524350586E0,-9.417815552E0,6.454577637E-1,9.771602293E0
7.962746458E0,-2.521207123E0,-9.405690765E0,6.418652344E-1,9.758867512E0
7.972686458E0,-2.550995178E0,-9.426048431E0,6.319857788E-1,9.785569552E0
7.982627458E0,-2.600093079E0,-9.446555786E0,6.075865173E-1,9.816672635E0
7.992567458E0,-2.620450745E0,-9.462273102E0,5.989045715E-1,9.836669205E0
8.002507458E0,-2.622546387E0,-9.451944580E0,5.619314575E-1,9.825109305E0
8.012447458E0,-2.571352844E0,-9.438921661E0,5.149291992E-1,9.796440663E0
8.022387458E0,-2.540666656E0,-9.426497498E0,4.716691589E-1,9.774267948E0
8.032327458E0,-2.512375488E0,-9.431586914E0,4.346960449E-1,9.770149588E0
8.042267458E0,-2.484383698E0,-9.449998627E0,4.429289246E-1,9.781146274E0
8.052207458E0,-2.449805603E0,-9.487420807E0,4.501139832E-1,9.808939986E0
8.062148458E0,-2.453248444E0,-9.510622559E0,4.752616882E-1,9.833424787E0
8.072088458E0,-2.421065369E0,-9.518705750E0,4.947212219E-1,9.834229291E0
8.082028458E0,-2.398911438E0,-9.513616333E0,5.334906006E-1,9.825898638E0
8.091968458E0,-2.411485291E0,-9.507329407E0,5.700146484E-1,9.824942262E0
8.101908458E0,-2.404599609E0,-9.492809601E0,5.974076843E-1,9.810832245E0
8.111848458E0,-2.450703735E0,-9.475894775E0,6.051914978E-1,9.806364634E0
8.121788458E0,-2.490221558E0,-9.470056915E0,6.292913818E-1,9.812195933E0
8.131729458E0,-2.511177979E0,-9.461374969E0,6.222560120E-1,9.808712132E0
8.141669458E0,-2.539469147E0,-9.463320923E0,6.033952332E-1,9.816691512E0
8.151609458E0,-2.570005646E0,-9.449848938E0,6.008505249E-1,9.811503214E0
8.161549458E0,-2.566712494E0,-9.413474579E0,5.746549988E-1,9.774034225E0
8.171489458E0,-2.568359070E0,-9.400152283E0,5.116360474E-1,9.758130082E0
8.181429458E0,-2.555635529E0,-9.424551544E0,5.071453857E-1,9.778069401E0
8.191369458E0,-2.555186462E0,-9.445957031E0,5.016069031E-1,9.798300443E0
8.201310458E0,-2.573298798E0,-9.471703491E0,5.135820007E-1,9.828468863E0
8.211250458E0,-2.548300781E0,-9.474846954E0,5.376818848E-1,9.826274141E0
8.221190458E0,-2.557581482E0,-9.473200378E0,5.590873718E-1,9.828292178E0
8.231130458E0,-2.540966034E0,-9.472601624E0,5.797444153E-1,9.824601442E0
8.241070458E0,-2.535277863E0,-9.456734619E0,5.975573730E-1,9.808900974E0
8.251010458E0,-2.560275879E0,-9.459129639E0,6.180647278E-1,9.818968892E0
8.260950458E0,-2.571502533E0,-9.430688782E0,6.445596313E-1,9.796222399E0
8.270890458E0,-2.581681366E0,-9.425599365E0,6.292913818E-1,9.793008205E0
8.280831458E0,-2.609972534E0,-9.433532867E0,6.147715759E-1,9.807213829E0
8.290771458E0,-2.642904053E0,-9.438771973E0,6.179150391E-1,9.821261486E0
8.300711458E0,-2.655777283E0,-9.435778198E0,5.975573730E-1,9.820597639E0
8.310651458E0,-2.617456970E0,-9.430090027E0,5.619314575E-1,9.802726451E0
8.320591458E0,-2.561323700E0,-9.433981934E0,5.504054260E-1,9.790982604E0
8.330531458E0,-2.528541870E0,-9.434580688E0,5.295986938E-1,9.781886911E0
8.340471458E0,-2.517165527E0,-9.465416565E0,5.234614563E-1,9.808376264E0
8.350412458E0,-2.530487823E0,-9.475296021E0,5.318440247E-1,9.821785040E0
8.360352458E0,-2.537523193E0,-9.478589172E0,5.071453857E-1,9.825470630E0
8.370292458E0,-2.546654205E0,-9.479038239E0,4.923262024E-1,9.827512333E0
8.380232458E0,-2.579136658E0,-9.456734619E0,4.861889648E-1,9.814181334E0
8.390172458E0,-2.585722961E0,-9.432035980E0,4.866380310E-1,9.792143919E0
8.400112458E0,-2.604134674E0,-9.415270844E0,4.791535950E-1,9.780512800E0
8.410052458E0,-2.603386230E0,-9.423803101E0,4.727169800E-1,9.788214653E0
8.419993458E0,-2.591261444E0,-9.456884308E0,4.951702881E-1,9.817967727E0
8.429933458E0,-2.589914246E0,-9.490863647E0,4.899311829E-1,9.850085337E0
8.439873458E0,-2.567011871E0,-9.503736877E0,4.719685364E-1,9.855623719E0
8.449813458E0,-2.524500275E0,-9.489666138E0,4.914280701E-1,9.832007251E0
8.459753458E0,-2.518961792E0,-9.485923920E0,4.808001709E-1,9.826448490E0
8.469693458E0,-2.510579224E0,-9.473350067E0,5.017565918E-1,9.813211972E0
8.479633458E0,-2.517913971E0,-9.454339600E0,5.057981873E-1,9.796951558E0
8.489574458E0,-2.530188446E0,-9.447154541E0,4.975653076E-1,9.792760271E0
8.499514458E0,-2.536026306E0,-9.443112946E0,4.905299377E-1,9.790016913E0
8.509454458E0,-2.575693817E0,-9.443711700E0,5.119354248E-1,9.802038931E0
8.519394458E0,-2.591710510E0,-9.432784424E0,5.236111450E-1,9.796354117E0
8.529334458E0,-2.600991211E0,-9.430688782E0,5.327421570E-1,9.797288420E0
8.539274458E0,-2.592908020E0,-9.425749054E0,5.307962036E-1,9.790284053E0
8.549214458E0,-2.606230316E0,-9.450298004E0,5.144801331E-1,9.816580802E0
8.559154458E0,-2.578388214E0,-9.472901001E0,5.086422729E-1,9.830699676E0
8.569095458E0,-2.581681366E0,-9.471104736E0,4.707710266E-1,9.827946325E0
8.579035458E0,-2.548151093E0,-9.485175476E0,4.903802490E-1,9.833722621E0
8.588975458E0,-2.566712494E0,-9.477840729E0,5.016069031E-1,9.832043907E0
8.598915208E0,-2.586920471E0,-9.463470612E0,5.360353088E-1,9.825312585E0
8.608855208E0,-2.609972534E0,-9.432335358E0,5.379812622E-1,9.801547366E0
8.618795208E0,-2.594704285E0,-9.411678314E0,5.809419250E-1,9.780065058E0
8.628735208E0,-2.586621094E0,-9.414223022E0,6.032455444E-1,9.781723211E0
8.638676208E0,-2.614612885E0,-9.417815552E0,6.228547668E-1,9.793844922E0
8.648616208E0,-2.605781250E0,-9.407487030E0,6.078858948E-1,9.780615185E0
8.658556208E0,-2.609523468E0,-9.413324890E0,5.977070618E-1,9.786600633E0
8.668496208E0,-2.608775024E0,-9.409133606E0,5.914201355E-1,9.781987534E0
8.678436208E0,-2.573448486E0,-9.425599365E0,5.595364380E-1,9.786605210E0
8.688376208E0,-2.559976501E0,-9.457632751E0,5.550457764E-1,9.813682936E0
8.698316208E0,-2.559976501E0,-9.462871857E0,5.545967102E-1,9.818706685E0
8.708256208E0,-2.543061676E0,-9.475745087E0,5.472619629E-1,9.826311785E0
8.718197208E0,-2.537972260E0,-9.485474854E0,5.111869812E-1,9.832438584E0
8.728137208E0,-2.522554321E0,-9.477691040E0,5.114863586E-1,9.820973783E0
8.738077208E0,-2.497107239E0,-9.463919678E0,5.122348022E-1,9.801209350E0
8.748017208E0,-2.483186188E0,-9.450447693E0,5.318440247E-1,9.785705560E0
8.757957208E0,-2.482587433E0,-9.447004852E0,5.780978394E-1,9.784852485E0
8.767897208E0,-2.474653931E0,-9.407786407E0,6.197113037E-1,9.747532984E0
8.777837208E0,-2.472707977E0,-9.386380920E0,6.483018494E-1,9.728243768E0
8.787778208E0,-2.469414825E0,-9.417815552E0,6.575825500E-1,9.758364318E0
8.797718208E0,-2.500250702E0,-9.467811584E0,6.381230164E-1,9.813149890E0
8.807658208E0,-2.511177979E0,-9.493707733E0,6.262976074E-1,9.840160062E0
8.817598208E0,-2.527494049E0,-9.502539368E0,6.002517700E-1,9.851232552E0
8.827538208E0,-2.509531403E0,-9.494156799E0,5.737568665E-1,9.836968950E0
8.837478208E0,-2.459535370E0,-9.475595398E0,5.481600952E-1,9.804932528E0
8.847418208E0,-2.401306458E0,-9.463320923E0,5.174739075E-1,9.776936884E0
8.857359208E0,-2.401605835E0,-9.460177460E0,5.222639465E-1,9.774222618E0
8.867299208E0,-2.380200348E0,-9.430688782E0,5.418731689E-1,9.741502509E0
8.877239208E0,-2.367027740E0,-9.401200104E0,5.492079163E-1,9.710150001E0
8.887179208E0,-2.387086029E0,-9.413474579E0,5.487588501E-1,9.726912132E0
8.897119208E0,-2.387235718E0,-9.440568237E0,5.430706787E-1,9.752853366E0
8.907059208E0,-2.377805328E0,-9.457333374E0,5.204676819E-1,9.765551666E0
8.916999208E0,-2.349963226E0,-9.494007111E0,5.143304443E-1,9.794030528E0
8.926940208E0,-2.306703186E0,-9.516610107E0,5.234614563E-1,9.806159259E0
8.936880208E0,-2.282004547E0,-9.533375244E0,5.243595886E-1,9.816707252E0
8.946820208E0,-2.272873535E0,-9.537865906E0,5.225633240E-1,9.818854952E0
8.956760208E0,-2.248923340E0,-9.530980225E0,5.319937134E-1,9.807153386E0
8.966700208E0,-2.242187347E0,-9.502389679E0,5.203179932E-1,9.777195126E0
8.976640208E0,-2.249222717E0,-9.468260651E0,5.102888489E-1,9.745119665E0
8.986580208E0,-2.264041901E0,-9.459578705E0,4.885839844E-1,9.739005561E0
8.996520208E0,-2.277214508E0,-9.478738861E0,4.662803650E-1,9.759590857E0
9.006461208E0,-2.300865326E0,-9.480385437E0,4.282594299E-1,9.764993365E0
9.016401208E0,-2.323618011E0,-9.485025787E0,3.718267822E-1,9.772572333E0
9.026341208E0,-2.350711670E0,-9.516310730E0,3.568579102E-1,9.808841055E0
9.036281208E0,-2.366728363E0,-9.519603882E0,3.209326172E-1,9.814645126E0
9.046221208E0,-2.352507935E0,-9.502988434E0,3.031196594E-1,9.794537472E0
9.056161208E0,-2.338586884E0,-9.513017578E0,3.135978699E-1,9.801267044E0
9.066101208E0,-2.302212524E0,-9.536967773E0,3.324586487E-1,9.816540408E0
9.076042208E0,-2.297721863E0,-9.570048981E0,3.409909058E-1,9.847925571E0
9.085982208E0,-2.300565948E0,-9.585317230E0,3.517684937E-1,9.863805106E0
9.095922208E0,-2.284549255E0,-9.608968048E0,3.773652649E-1,9.884019263E0
9.105862208E0,-2.276915131E0,-9.626631317E0,3.972738647E-1,9.900212096E0
9.115802208E0,-2.284549255E0,-9.598639526E0,4.219725037E-1,9.875783860E0
9.125742208E0,-2.304757233E0,-9.560468903E0,4.288581848E-1,9.843698029E0
9.135682208E0,-2.335144043E0,-9.541159058E0,4.351451111E-1,9.832393662E0
9.145622208E0,-2.385738831E0,-9.530231781E0,4.671784973E-1,9.835411700E0
9.155563208E0,-2.456092529E0,-9.495803375E0,5.063969421E-1,9.821359891E0
9.165503208E0,-2.503543854E0,-9.473200378E0,5.008584595E-1,9.811224003E0
9.175443208E0,-2.563569031E0,-9.431437225E0,5.098397827E-1,9.786921422E0
9.185383208E0,-2.617007904E0,-9.421108704E0,5.433700562E-1,9.792919411E0
9.195323208E0,-2.679727478E0,-9.425898743E0,5.581892395E-1,9.815298350E0
9.205263208E0,-2.736609192E0,-9.401948547E0,5.692662048E-1,9.808655890E0
9.215203208E0,-2.778522034E0,-9.368118896E0,5.894741821E-1,9.789244923E0
9.225144208E0,-2.788102112E0,-9.340127106E0,5.830375671E-1,9.764805197E0
9.235084208E0,-2.803819427E0,-9.315428467E0,5.978567505E-1,9.746591383E0
9.245024208E0,-2.812651062E0,-9.316775665E0,5.710624695E-1,9.748816704E0
9.254964208E0,-2.817740479E0,-9.321116638E0,6.056405640E-1,9.756519732E0
9.264904208E0,-2.806513824E0,-9.342372437E0,5.981561279E-1,9.773138357E0
9.274844208E0,-2.771786041E0,-9.380093994E0,5.846841431E-1,9.798510945E0
9.284784208E0,-2.758912811E0,-9.432784424E0,5.586383057E-1,9.843835566E0
9.294725208E0,-2.718796234E0,-9.467063141E0,5.292993164E-1,9.863939134E0
9.304665208E0,-2.679727478E0,-9.460626526E0,5.230123901E-1,9.846722073E0
9.314605208E0,-2.644400940E0,-9.442813568E0,4.849914551E-1,9.818085410E0
9.324545208E0,-2.681972809E0,-9.440119171E0,4.734654236E-1,9.825120743E0
9.334485208E0,-2.673739929E0,-9.473350067E0,4.632865906E-1,9.854333116E0
9.344425208E0,-2.695145416E0,-9.467362518E0,4.534071350E-1,9.853950472E0
9.354365208E0,-2.711461487E0,-9.401200104E0,4.174818420E-1,9.793307811E0
9.364305208E0,-2.727927246E0,-9.353748779E0,4.117936707E-1,9.752116556E0
9.374246208E0,-2.724484406E0,-9.348509674E0,3.996688843E-1,9.745623819E0
9.384186208E0,-2.735860748E0,-9.376950531E0,3.978726196E-1,9.776013396E0
9.394126208E0,-2.767295380E0,-9.410630493E0,3.918850708E-1,9.816896857E0
9.404066208E0,-2.778971100E0,-9.458830261E0,4.417314148E-1,9.868499224E0
9.414006208E0,-2.805316315E0,-9.477541351E0,4.734654236E-1,9.895340277E0
9.423946208E0,-2.803969116E0,-9.440119171E0,5.141807556E-1,9.861159902E0
9.433886208E0,-2.785856781E0,-9.425749054E0,5.523513794E-1,9.844330108E0
9.443827208E0,-2.769091644E0,-9.419761505E0,5.638774109E-1,9.834517430E0
9.453767208E0,-2.725232849E0,-9.432634735E0,5.481600952E-1,9.833716064E0
9.463707208E0,-2.687511292E0,-9.462572479E0,5.592370605E-1,9.852702216E0
9.473647208E0,-2.667752380E0,-9.449699249E0,5.634283447E-1,9.835200566E0
9.483587208E0,-2.677781525E0,-9.455686798E0,5.629792786E-1,9.843651375E0
9.493527208E0,-2.695444794E0,-9.396410065E0,5.719606018E-1,9.792092916E0
9.503467208E0,-2.728825378E0,-9.351952515E0,5.415737915E-1,9.756987545E0
9.513407208E0,-2.787653046E0,-9.298214264E0,5.245092773E-1,9.721260617E0
9.523348208E0,-2.839145966E0,-9.300309906E0,5.090913391E-1,9.737334756E0
9.533288208E0,-2.879412231E0,-9.332942047E0,4.751119995E-1,9.778576249E0
9.543228208E0,-2.889591064E0,-9.402247925E0,4.394860840E-1,9.846072850E0
9.553168208E0,-2.862048340E0,-9.483528900E0,3.900888062E-1,9.913667857E0
9.563108208E0,-2.808310089E0,-9.518705750E0,3.499722290E-1,9.930500756E0
9.573048208E0,-2.737507324E0,-9.550888824E0,3.411405945E-1,9.941317850E0
9.582988208E0,-2.648442535E0,-9.565109253E0,3.628454590E-1,9.931627244E0
9.592929250E0,-2.535726929E0,-9.522597656E0,3.754193115E-1,9.861577807E0
9.602869250E0,-2.479294281E0,-9.463171234E0,3.930825806E-1,9.790455753E0
9.612809250E0,-2.456541595E0,-9.440717926E0,4.194277954E-1,9.764101149E0
9.622749250E0,-2.436782684E0,-9.434431000E0,4.830455017E-1,9.756009999E0
9.632689250E0,-2.485581207E0,-9.449250183E0,5.447172546E-1,9.785865309E0
9.642629250E0,-2.557731171E0,-9.464817810E0,5.969586182E-1,9.822480568E0
9.652569250E0,-2.662363586E0,-9.463171234E0,6.604266357E-1,9.852712977E0
9.662509250E0,-2.763253784E0,-9.439969482E0,7.349716187E-1,9.863507418E0
9.672450250E0,-2.859503632E0,-9.390871582E0,8.104147339E-1,9.849974727E0
9.682390250E0,-2.955753479E0,-9.330696716E0,8.402027893E-1,9.823661261E0
9.692330250E0,-3.054847412E0,-9.297765198E0,8.550219727E-1,9.824031400E0
9.702270250E0,-3.095712433E0,-9.281598816E0,8.408015442E-1,9.820308513E0
9.712210250E0,-3.069816284E0,-9.270671539E0,7.869136047E-1,9.797364739E0
9.722150250E0,-3.005001068E0,-9.269923096E0,7.557783508E-1,9.774083412E0
9.732090250E0,-2.884052582E0,-9.271419983E0,7.132667542E-1,9.735796693E0
9.742031250E0,-2.778072968E0,-9.337881775E0,6.285429382E-1,9.762622172E0
9.751971250E0,-2.727927246E0,-9.386979675E0,5.912704468E-1,9.793190248E0
9.761911250E0,-2.686463470E0,-9.414372711E0,5.472619629E-1,9.805457418E0
9.771851250E0,-2.621199188E0,-9.414971466E0,5.222639465E-1,9.786987919E0
9.781791250E0,-2.552641754E0,-9.425599365E0,5.378315735E-1,9.779936918E0
9.791731250E0,-2.508782959E0,-9.432035980E0,4.957690430E-1,9.772567811E0
9.801671250E0,-2.477048950E0,-9.467362518E0,5.004093933E-1,9.798833304E0
9.811612250E0,-2.481689301E0,-9.485325165E0,5.120851135E-1,9.817963456E0
9.821552250E0,-2.566113739E0,-9.473050690E0,5.301974487E-1,9.828770952E0
9.831492250E0,-2.610720978E0,-9.429042206E0,5.387297058E-1,9.798618813E0
9.841432250E0,-2.650538177E0,-9.393116913E0,5.436694336E-1,9.775048564E0
9.851372250E0,-2.676584015E0,-9.387428741E0,5.351371765E-1,9.776210522E0
9.861312250E0,-2.712958374E0,-9.391320648E0,5.547463989E-1,9.791056645E0
9.871252250E0,-2.706671448E0,-9.385333099E0,5.399272156E-1,9.782743435E0
9.881192250E0,-2.673440552E0,-9.405092010E0,5.101391602E-1,9.790979628E0
9.891133250E0,-2.610122223E0,-9.418264618E0,4.599934387E-1,9.784070748E0
9.901073250E0,-2.521207123E0,-9.440568237E0,4.403842163E-1,9.781347160E0
9.911013250E0,-2.471061401E0,-9.463320923E0,4.278103638E-1,9.789974926E0
9.920953250E0,-2.422562256E0,-9.468260651E0,4.168830872E-1,9.782155138E0
9.930893250E0,-2.365530853E0,-9.478589172E0,3.835025024E-1,9.776832978E0
9.940833250E0,-2.334694977E0,-9.523795166E0,3.700305176E-1,9.812767071E0
9.950773250E0,-2.328557739E0,-9.544003143E0,3.815565491E-1,9.831366260E0
9.960714250E0,-2.326312408E0,-9.532776489E0,3.908372498E-1,9.820300951E0
9.970654250E0,-2.341131592E0,-9.518106995E0,3.899391174E-1,9.809551998E0
9.980594250E0,-2.373015289E0,-9.501341858E0,3.953279114E-1,9.801172523E0
9.990534250E0,-2.402653656E0,-9.480834503E0,4.197271729E-1,9.789542296E0
1.000047425E1,-2.444566498E0,-9.470206604E0,4.215234375E-1,9.789708907E0
1.001041425E1,-2.505789185E0,-9.446705475E0,4.574487305E-1,9.784093372E0
1.002035425E1,-2.513123932E0,-9.415121155E0,4.382885742E-1,9.754608917E0
1.003029425E1,-2.546803894E0,-9.390871582E0,4.327500916E-1,9.739710046E0
1.004023525E1,-2.547702026E0,-9.397906952E0,4.158352661E-1,9.745991979E0
1.005017525E1,-2.549947357E0,-9.419312439E0,4.246669006E-1,9.767600541E0
1.006011525E1,-2.538571014E0,-9.430090027E0,4.191284180E-1,9.774794593E0
1.007005525E1,-2.550246735E0,-9.498946838E0,4.215234375E-1,9.844360388E0
1.007999525E1,-2.507585449E0,-9.500443726E0,4.058061218E-1,9.834179904E0
1.008993525E1,-2.470013580E0,-9.470206604E0,4.041595459E-1,9.795362431E0
1.009987525E1,-2.426753540E0,-9.476343842E0,3.808081055E-1,9.789547495E0
1.010981625E1,-2.370620270E0,-9.472601624E0,3.736230469E-1,9.771878845E0
1.011975625E1,-2.383643188E0,-9.483379211E0,4.120930481E-1,9.787035138E0
1.012969625E1,-2.404449921E0,-9.468859406E0,4.454736328E-1,9.779525787E0
1.013963625E1,-2.444865875E0,-9.467063141E0,4.739144897E-1,9.789139319E0
1.014957625E1,-2.509381714E0,-9.457333374E0,5.016069031E-1,9.797436431E0
1.015951625E1,-2.500699768E0,-9.457483063E0,4.869374084E-1,9.794620628E0
1.016945625E1,-2.441273346E0,-9.470805359E0,4.616400146E-1,9.791275770E0
1.017939625E1,-2.418820038E0,-9.431736603E0,4.628375244E-1,9.747951800E0
1.018933725E1,-2.403701477E0,-9.412875824E0,4.941224670E-1,9.727495519E0
1.019927725E1,-2.391576691E0,-9.444310455E0,5.044509888E-1,9.755465640E0
1.020921725E1,-2.342329102E0,-9.499994659E0,5.077441406E-1,9.797663408E0
1.021915725E1,-2.294279022E0,-9.554331665E0,4.769082642E-1,9.837500256E0
1.022909725E1,-2.239492950E0,-9.632469177E0,4.740641785E-1,9.900733709E0
1.023903725E1,-2.187700653E0,-9.674232330E0,4.505630493E-1,9.928736697E0
1.024897725E1,-2.141297150E0,-9.707313538E0,4.349954224E-1,9.950191486E0
1.025891825E1,-2.159708862E0,-9.694140930E0,4.281097412E-1,9.941025535E0
1.026885825E1,-2.169588318E0,-9.645941162E0,4.348457336E-1,9.896483476E0
1.027879825E1,-2.207609253E0,-9.599238281E0,4.725672913E-1,9.861147704E0
1.028873825E1,-2.317181396E0,-9.510323181E0,4.694238281E-1,9.799792618E0
1.029867825E1,-2.408341827E0,-9.479187927E0,4.704716492E-1,9.791652449E0
1.030861825E1,-2.534529419E0,-9.440119171E0,4.728666687E-1,9.785872073E0
1.031855825E1,-2.661465454E0,-9.431736603E0,4.742138672E-1,9.811520397E0
1.032849825E1,-2.779120789E0,-9.415420532E0,4.334985352E-1,9.826575046E0
1.033843925E1,-2.880160675E0,-9.409432983E0,3.833528137E-1,9.847827880E0
1.034837925E1,-2.949616241E0,-9.375902710E0,3.619473267E-1,9.835588110E0
1.035831925E1,-2.984643402E0,-9.340725861E0,3.858975220E-1,9.813570845E0
1.036825925E1,-2.969225464E0,-9.325158234E0,4.278103638E-1,9.795810209E0
1.037819925E1,-2.915636902E0,-9.317524109E0,5.068460083E-1,9.776200026E0
1.038813925E1,-2.832110596E0,-9.333391113E0,5.572911072E-1,9.769524731E0
1.039807925E1,-2.752925262E0,-9.367071075E0,6.095324707E-1,9.782236343E0
1.040802025E1,-2.685265961E0,-9.407786407E0,6.855743408E-1,9.807502768E0
1.041796025E1,-2.599045258E0,-9.427245941E0,7.101232910E-1,9.804706899E0
1.042790025E1,-2.546055450E0,-9.453740845E0,7.225474548E-1,9.817213919E0
1.043784025E1,-2.511926422E0,-9.516610107E0,7.164102173E-1,9.868580743E0
1.044778025E1,-2.478994904E0,-9.570647736E0,7.053332520E-1,9.911619888E0
1.045772025E1,-2.430795135E0,-9.559870148E0,7.194039917E-1,9.890269174E0
1.046766025E1,-2.446961517E0,-9.524094543E0,6.872209167E-1,9.857396722E0
1.047760025E1,-2.518213348E0,-9.483977966E0,6.469546509E-1,9.833910049E0
1.048754125E1,-2.589614868E0,-9.435778198E0,5.739065552E-1,9.801499074E0
1.049748125E1,-2.669997711E0,-9.397308197E0,5.113366699E-1,9.782625124E0
1.050742125E1,-2.733166351E0,-9.380093994E0,4.450245667E-1,9.780307179E0
1.051736125E1,-2.782713318E0,-9.361981659E0,3.974235535E-1,9.774872862E0
1.052730125E1,-2.841840363E0,-9.373358002E0,3.282673645E-1,9.800186546E0
1.053724125E1,-2.856509857E0,-9.375154266E0,2.615061951E-1,9.804159912E0
1.054718125E1,-2.855312347E0,-9.394763489E0,2.686912537E-1,9.822758503E0
1.055712225E1,-2.810106354E0,-9.426647186E0,2.986289978E-1,9.841115494E0
1.056706225E1,-2.736908569E0,-9.455088043E0,3.547622681E-1,9.849630180E0
1.057700225E1,-2.637814636E0,-9.475894775E0,4.170327759E-1,9.845027384E0
1.058694225E1,-2.527943115E0,-9.491312714E0,4.730163574E-1,9.833578082E0
1.059688183E1,-2.416425018E0,-9.501491547E0,5.447172546E-1,9.819071665E0
1.060682183E1,-2.378254395E0,-9.500443726E0,6.255491638E-1,9.813553725E0
1.061676183E1,-2.336491241E0,-9.511520691E0,6.737489319E-1,9.817441357E0
1.062670283E1,-2.304906921E0,-9.504635010E0,7.237449646E-1,9.806859301E0
1.063664283E1,-2.337389374E0,-9.483079834E0,7.396119690E-1,9.794856716E0
1.064658283E1,-2.395019531E0,-9.481732635E0,7.262896729E-1,9.806470773E0
1.065652283E1,-2.472258911E0,-9.456584930E0,6.753955078E-1,9.797715130E0
1.066646283E1,-2.530338135E0,-9.449998627E0,5.619314575E-1,9.799023017E0
1.067640283E1,-2.580633545E0,-9.419013062E0,4.466711426E-1,9.776348585E0
1.068634283E1,-2.637066193E0,-9.414522400E0,3.481759644E-1,9.783076031E0
1.069628283E1,-2.648592224E0,-9.419162750E0,2.727328491E-1,9.788260872E0
1.070622383E1,-2.677781525E0,-9.416019287E0,2.218386841E-1,9.791891825E0
1.071616383E1,-2.665656738E0,-9.426198120E0,1.996847534E-1,9.797898287E0
1.072610383E1,-2.665357361E0,-9.456285553E0,2.417472839E-1,9.827711233E0
1.073604383E1,-2.631677399E0,-9.488318939E0,2.817141724E-1,9.850547452E0
1.074598383E1,-2.600392456E0,-9.458979950E0,3.589535522E-1,9.816475451E0
1.075592383E1,-2.561323700E0,-9.426347809E0,4.135899353E-1,9.776884409E0
1.076586383E1,-2.517165527E0,-9.407337341E0,4.561015320E-1,9.748956188E0
1.077580483E1,-2.493365021E0,-9.399852905E0,5.269042969E-1,9.739185382E0
1.078574483E1,-2.473306732E0,-9.420809326E0,5.816903687E-1,9.757420675E0
1.079568483E1,-2.480491791E0,-9.474248199E0,6.277944946E-1,9.813681490E0
1.080562483E1,-2.457888794E0,-9.463620300E0,6.520440674E-1,9.799310587E0
1.081556483E1,-2.460433502E0,-9.450597382E0,6.499484253E-1,9.787234382E0
1.082550483E1,-2.471360779E0,-9.449100494E0,6.194119263E-1,9.786561980E0
1.083544483E1,-2.514171753E0,-9.454339600E0,5.890251160E-1,9.800640155E0
1.084538483E1,-2.547552338E0,-9.460177460E0,5.170248413E-1,9.810825407E0
1.085532583E1,-2.578088837E0,-9.452094269E0,4.426295471E-1,9.807372178E0
1.086526583E1,-2.575095062E0,-9.435478821E0,3.863465881E-1,9.788188742E0
1.087520583E1,-2.551144867E0,-9.455088043E0,3.257226562E-1,9.798628745E0
1.088514583E1,-2.545606384E0,-9.498497772E0,3.212319946E-1,9.838941091E0
1.089508583E1,-2.552342377E0,-9.513766022E0,3.600013733E-1,9.856763998E0
1.090502583E1,-2.568209381E0,-9.482181702E0,3.873944092E-1,9.831456844E0
1.091496583E1,-2.562521210E0,-9.452393646E0,4.363426208E-1,9.803298194E0
1.092490683E1,-2.571801910E0,-9.413025513E0,4.520599365E-1,9.768498992E0
1.093484683E1,-2.544259186E0,-9.440418549E0,4.736151123E-1,9.788721492E0
1.094478683E1,-2.550995178E0,-9.456135864E0,4.769082642E-1,9.805790298E0
1.095472683E1,-2.584076385E0,-9.491312714E0,4.951702881E-1,9.849246743E0
1.096466683E1,-2.587668915E0,-9.502689056E0,5.011578369E-1,9.861454705E0
1.097460683E1,-2.582130432E0,-9.489366760E0,5.393284607E-1,9.849180386E0
1.098454683E1,-2.546354828E0,-9.473649445E0,5.833369446E-1,9.827219276E0
1.099448683E1,-2.521656189E0,-9.476044464E0,6.147715759E-1,9.825075710E0
1.100442783E1,-2.466121674E0,-9.444909210E0,6.186634827E-1,9.781145669E0
1.101436783E1,-2.397713928E0,-9.445807343E0,6.354286194E-1,9.766067682E0
1.102430783E1,-2.393672333E0,-9.421108704E0,6.021977234E-1,9.739075857E0
1.103424783E1,-2.364782410E0,-9.431287537E0,5.505551147E-1,9.738813654E0
1.104418783E1,-2.330952759E0,-9.464518433E0,5.174739075E-1,9.761056765E0
1.105412783E1,-2.360291748E0,-9.501491547E0,4.728666687E-1,9.801679531E0
1.106406783E1,-2.389031982E0,-9.475296021E0,4.462220764E-1,9.782015264E0
1.107400783E1,-2.448608093E0,-9.464518433E0,4.239184570E-1,9.785320517E0
1.108394883E1,-2.515518951E0,-9.471853180E0,4.324507141E-1,9.809732508E0
1.109388883E1,-2.568209381E0,-9.448801117E0,4.390370178E-1,9.801443540E0
1.110382883E1,-2.585124207E0,-9.408684540E0,4.501139832E-1,9.767743574E0
1.111376883E1,-2.652184753E0,-9.404193878E0,4.810995483E-1,9.782862732E0
1.112370883E1,-2.696193237E0,-9.455836487E0,4.800517273E-1,9.844427424E0
1.113364883E1,-2.672392731E0,-9.430988159E0,4.864883423E-1,9.814371680E0
1.114358883E1,-2.647694092E0,-9.376052399E0,4.812492371E-1,9.754601141E0
1.115352983E1,-2.618953857E0,-9.392218781E0,4.941224670E-1,9.763034873E0
1.116346983E1,-2.604883118E0,-9.457333374E0,5.078938293E-1,9.822653753E0
1.117340983E1,-2.551144867E0,-9.454489288E0,5.054988098E-1,9.805673709E0
1.118334983E1,-2.484084320E0,-9.456285553E0,4.902305603E-1,9.789399234E0
1.119328983E1,-2.412982178E0,-9.470955048E0,4.906796265E-1,9.785818259E0
1.120322983E1,-2.341580658E0,-9.492061157E0,5.087919617E-1,9.789846488E0
1.121316983E1,-2.301913147E0,-9.528884583E0,5.194198608E-1,9.816732782E0
1.122310983E1,-2.241588593E0,-9.532776489E0,5.439688110E-1,9.807876890E0
1.123305083E1,-2.230811005E0,-9.529483337E0,5.563929749E-1,9.802915054E0
1.124299083E1,-2.182910614E0,-9.510323181E0,5.577401733E-1,9.773557175E0
1.125293083E1,-2.154619446E0,-9.513766022E0,5.358856201E-1,9.769406444E0
1.126287083E1,-2.217189331E0,-9.518556061E0,5.652246094E-1,9.789704637E0
1.127281083E1,-2.298021240E0,-9.536518707E0,5.773493958E-1,9.826465438E0
1.128275083E1,-2.377805328E0,-9.497000885E0,5.557942200E-1,9.805911034E0
1.129269083E1,-2.447111206E0,-9.439221039E0,5.331912231E-1,9.765835343E0
1.130263183E1,-2.500550079E0,-9.435329132E0,5.128335571E-1,9.774517113E0
1.131257183E1,-2.568508759E0,-9.453591156E0,4.978646851E-1,9.808949599E0
1.132251183E1,-2.619253235E0,-9.473649445E0,4.746629333E-1,9.840519611E0
1.133245183E1,-2.699187012E0,-9.495354309E0,4.564009094E-1,9.882088128E0
1.134239183E1,-2.766846313E0,-9.502539368E0,4.839436340E-1,9.908980492E0
1.135233183E1,-2.801574097E0,-9.471254425E0,4.776567078E-1,9.888459624E0
1.136227183E1,-2.772235107E0,-9.432934113E0,4.324507141E-1,9.841369167E0
1.137221283E1,-2.650687866E0,-9.426048431E0,4.143383789E-1,9.800418944E0
1.138215283E1,-2.539618835E0,-9.414821777E0,3.852987671E-1,9.758944004E0
1.139209283E1,-2.516566772E0,-9.395062866E0,3.935316467E-1,9.734227331E0
1.140203283E1,-2.529140625E0,-9.374854889E0,4.041595459E-1,9.718425872E0
1.141197283E1,-2.542013855E0,-9.380393372E0,3.941304016E-1,9.726713372E0
1.142191283E1,-2.533481598E0,-9.384285278E0,4.080514526E-1,9.728815199E0
1.143185283E1,-2.479294281E0,-9.374405823E0,4.433779907E-1,9.706851637E0
1.144179283E1,-2.430495758E0,-9.383985901E0,4.805007935E-1,9.705533578E0
1.145173383E1,-2.401156769E0,-9.383387146E0,5.607339478E-1,9.701954995E0
1.146167383E1,-2.386038208E0,-9.411378937E0,6.072871399E-1,9.728105134E0
1.147161383E1,-2.365081787E0,-9.454339600E0,6.414161682E-1,9.766758102E0
1.148155383E1,-2.403402100E0,-9.504784698E0,6.800358582E-1,9.827498287E0
1.149149383E1,-2.477048950E0,-9.544751587E0,7.217990112E-1,9.887317542E0
1.150143383E1,-2.480791168E0,-9.581425323E0,7.277865601E-1,9.924097406E0
1.151137383E1,-2.475552063E0,-9.603728943E0,6.649172974E-1,9.939923674E0
1.152131483E1,-2.463277588E0,-9.583970032E0,5.447172546E-1,9.910445748E0
1.153125483E1,-2.417173462E0,-9.538015594E0,4.224215698E-1,9.848599342E0
1.154119483E1,-2.403551788E0,-9.501491547E0,2.775228882E-1,9.804714262E0
1.155113483E1,-2.466870117E0,-9.463320923E0,1.531315613E-1,9.780763791E0
1.156107483E1,-2.539020081E0,-9.466913452E0,4.954696655E-2,9.801608449E0
1.157101483E1,-2.615211639E0,-9.471104736E0,5.987548828E-3,9.825537782E0
1.158095483E1,-2.657423859E0,-9.526190186E0,-1.646575928E-3,9.889904131E0
1.159089483E1,-2.687511292E0,-9.550140381E0,-2.095642090E-3,9.921083743E0
1.160083612E1,-2.684367828E0,-9.584568787E0,-1.017883301E-2,9.953386010E0
1.161077613E1,-2.655926971E0,-9.590406647E0,-1.272354126E-2,9.951382297E0
1.162071612E1,-2.622845764E0,-9.577683105E0,-3.188369751E-2,9.930375126E0
1.163065612E1,-2.526895294E0,-9.557325439E0,-6.676116943E-2,9.885956020E0
1.164059612E1,-2.441872101E0,-9.519304504E0,-1.025367737E-1,9.828042094E0
1.165053613E1,-2.355651398E0,-9.493707733E0,-9.714797974E-2,9.782076352E0
1.166047612E1,-2.265987854E0,-9.526639252E0,-8.412506104E-2,9.792784763E0
1.167041612E1,-2.196083221E0,-9.511969757E0,-3.667373657E-2,9.762258711E0
1.168035712E1,-2.183060303E0,-9.486672363E0,5.927673340E-2,9.734794222E0
1.169029712E1,-2.201022949E0,-9.504934387E0,1.558259583E-1,9.757692425E0
1.170023712E1,-2.148482208E0,-9.491612091E0,2.121089172E-1,9.734046747E0
1.171017713E1,-2.121538239E0,-9.486372986E0,1.917512512E-1,9.722600756E0
1.172011712E1,-2.180515594E0,-9.469907227E0,1.374142456E-1,9.718676546E0
1.173005712E1,-2.268083496E0,-9.404942322E0,7.454498291E-2,9.674848824E0
1.173999712E1,-2.441123657E0,-9.223669281E0,3.173400879E-2,9.541287479E0
1.174993812E1,-2.712509308E0,-9.014703827E0,4.161346436E-2,9.414049262E0
1.175987812E1,-2.962639160E0,-8.979526978E0,1.270857239E-1,9.456494399E0
1.176981813E1,-3.110381927E0,-9.030870209E0,2.930905151E-1,9.555992597E0
1.177975812E1,-3.103047180E0,-9.028774567E0,4.632865906E-1,9.558363168E0
1.178969812E1,-3.057990875E0,-8.956923981E0,6.430627441E-1,9.486375761E0
1.179963812E1,-3.003504181E0,-8.957971802E0,7.679031372E-1,9.479238967E0
1.180957813E1,-2.937042389E0,-8.987759857E0,8.153544617E-1,9.490566271E0
1.181951812E1,-2.828667755E0,-9.057814178E0,8.261320496E-1,9.525116961E0
1.182945913E1,-2.768642578E0,-9.179810486E0,7.741900635E-1,9.619442423E0
1.183939912E1,-2.669997711E0,-9.244925079E0,6.397695923E-1,9.644005010E0
1.184933912E1,-2.588716736E0,-9.263935547E0,4.912783813E-1,9.631371169E0
1.185927912E1,-2.587668915E0,-9.294322357E0,3.450325012E-1,9.653989119E0
1.186921913E1,-2.674039307E0,-9.302106171E0,2.796185303E-1,9.682863830E0
1.187915912E1,-2.862647095E0,-9.288334808E0,2.888992310E-1,9.723753116E0
1.188909912E1,-3.072061615E0,-9.237290955E0,3.998185730E-1,9.742944198E0
1.189904012E1,-3.218606873E0,-9.171876984E0,4.710704041E-1,9.731632182E0
1.190898012E1,-3.265908508E0,-9.024134216E0,4.445755005E-1,9.607226661E0
1.191892012E1,-3.276386719E0,-8.808133392E0,3.442840576E-1,9.404065892E0
1.192886013E1,-3.339106293E0,-8.611143036E0,2.709365845E-1,9.239849666E0
1.193880012E1,-3.410956879E0,-8.518635406E0,1.767823792E-1,9.177855306E0
1.194874012E1,-3.496429138E0,-8.465944977E0,3.173400879E-2,9.159598687E0
1.195868012E1,-3.563339996E0,-8.535101166E0,-1.496887207E-3,9.249072715E0
1.196862013E1,-3.615880737E0,-8.691376190E0,7.933502197E-3,9.413536877E0
1.197856112E1,-3.687581635E0,-8.770411835E0,1.209484863E-1,9.514883636E0
1.198850113E1,-3.725003815E0,-8.803343353E0,2.552192688E-1,9.562407881E0
1.199844113E1,-3.713926849E0,-8.771160278E0,4.050576782E-1,9.533654965E0
1.200838112E1,-3.702849884E0,-8.665779419E0,6.297404480E-1,9.444755329E0
1.201832112E1,-3.633544006E0,-8.562494202E0,8.434959412E-1,9.339723465E0
1.202826113E1,-3.510799255E0,-8.544531555E0,1.074315948E0,9.299940089E0
1.203820113E1,-3.418441315E0,-8.558751984E0,1.223405914E0,9.297026329E0
1.204814213E1,-3.305725708E0,-8.639583893E0,1.320404205E0,9.344179983E0
1.205808213E1,-3.194506989E0,-8.688681793E0,1.322499847E0,9.351313921E0
1.206802212E1,-3.062631226E0,-8.609197083E0,1.286275177E0,9.227810589E0
1.207796212E1,-2.904110870E0,-8.460705872E0,1.234782257E0,9.030065947E0
1.208790213E1,-2.806364136E0,-8.487949219E0,1.162033539E0,9.015058710E0
1.209784213E1,-2.757415924E0,-8.624165955E0,1.114133148E0,9.122547542E0
1.210778212E1,-2.767445068E0,-8.885821838E0,1.137783966E0,9.376093766E0
1.211772212E1,-2.884801025E0,-9.189091187E0,1.198407898E0,9.705547655E0
1.212766312E1,-3.029550018E0,-9.348809052E0,1.284029846E0,9.910960430E0
1.213760312E1,-3.052153015E0,-9.222471771E0,1.316212921E0,9.803164798E0
1.214754313E1,-3.133883057E0,-9.091194763E0,1.269360352E0,9.699604164E0
1.215748313E1,-3.378624115E0,-9.242530060E0,1.204844513E0,9.914187466E0
1.216742312E1,-3.690126343E0,-9.711205444E0,1.146765289E0,1.045177565E1
1.217736312E1,-3.984863434E0,-1.027822632E1,1.189725952E0,1.108767427E1
1.218730312E1,-4.032314758E0,-1.058912979E1,1.197210388E0,1.139396967E1
1.219724412E1,-3.711531830E0,-1.033151550E1,1.053958282E0,1.102844092E1
1.220718412E1,-3.298840027E0,-9.684111786E0,9.372010803E-1,1.027339829E1
1.221712413E1,-2.879711609E0,-8.990154877E0,8.713380432E-1,9.480234894E0
1.222706412E1,-2.591411133E0,-8.559051361E0,8.150550842E-1,8.979815513E0
1.223700412E1,-2.399959259E0,-8.365354156E0,6.987469482E-1,8.730819086E0
1.224694412E1,-2.259850616E0,-8.233478394E0,7.671546936E-1,8.572375260E0
1.225688413E1,-2.086361389E0,-8.046068115E0,8.731343079E-1,8.357899227E0
1.226682412E1,-2.107168121E0,-7.956554260E0,9.523196411E-1,8.285760429E0
1.227676513E1,-2.286345520E0,-8.027057648E0,9.675878906E-1,8.402217365E0
1.228670512E1,-2.546354828E0,-8.447233887E0,1.064137115E0,8.886623152E0
1.229664512E1,-2.864443359E0,-9.038204956E0,1.318757629E0,9.572528729E0
1.230658512E1,-3.220403137E0,-9.651629333E0,1.732197876E0,1.032111693E1
1.231652513E1,-3.145409088E0,-9.928553467E0,2.247725830E0,1.065467239E1
1.232646512E1,-2.803370361E0,-9.921817474E0,1.798210602E0,1.046589264E1
1.233640512E1,-2.368824005E0,-1.002076172E1,1.223405914E0,1.036936423E1
1.234634512E1,-1.753603363E0,-9.803563385E0,7.957452393E-1,9.990905379E0
1.235628612E1,-1.272354126E0,-9.483379211E0,5.090913391E-1,9.581886050E0
1.236622612E1,-8.901988220E-1,-9.162596283E0,7.005432129E-2,9.206005225E0
1.237616613E1,-4.655319214E-1,-8.932824097E0,-8.910969543E-1,8.989222441E0
1.238610612E1,1.603166199E-1,-9.141490173E0,-2.216740265E0,9.407788338E0
1.239604612E1,8.131091309E-1,-9.604477386E0,-3.432961121E0,1.023192818E1
1.240598612E1,1.102008362E0,-1.031025970E1,-4.257745972E0,1.120911586E1
1.241592613E1,8.572673035E-1,-1.154055130E1,-4.085005188E0,1.227218395E1
1.242586712E1,-1.695973206E-1,-1.310644501E1,-2.893782349E0,1.342317549E1
1.243580713E1,-1.663041687E0,-1.453522385E1,-1.722767487E0,1.473113600E1
1.244574712E1,-2.614463196E0,-1.532183807E1,-7.903564453E-1,1.556338019E1
1.245568712E1,-2.512525177E0,-1.499282227E1,-1.576222229E-1,1.520270854E1
1.246562712E1,-1.978735199E0,-1.375025620E1,2.365081787E-2,1.389192203E1
1.247556713E1,-2.313439178E0,-1.320434143E1,-7.140151978E-1,1.342447210E1
1.248550712E1,-2.094294891E0,-1.351868774E1,-2.203417969E0,1.385626357E1
1.249544712E1,-1.458267517E0,-1.380878448E1,-3.193908234E0,1.424816209E1
1.250538812E1,-5.105882263E-1,-1.345581848E1,-3.831432495E0,1.399998665E1
1.251532812E1,4.131408691E-2,-1.261082565E1,-4.632416840E0,1.343480243E1
1.252526812E1,1.513352966E-1,-1.203212906E1,-5.625751190E0,1.328322659E1
1.253520813E1,2.439926147E-1,-1.209529770E1,-7.211403809E0,1.408403720E1
1.254514812E1,4.261637878E-1,-1.255813522E1,-9.837692413E0,1.595833851E1
1.255508812E1,4.601431274E-1,-1.241608063E1,-1.116183884E1,1.670201892E1
1.256502812E1,-1.278341675E-1,-1.136137390E1,-9.936636658E0,1.509416797E1
1.257496912E1,-4.805007935E-1,-9.657317505E0,-6.967710571E0,1.191820679E1
1.258490912E1,-4.643344116E-1,-8.850195923E0,-1.390308838E0,8.970759889E0
1.259484900E1,1.529818726E-1,-9.148076477E0,2.519111481E0,9.489817139E0
1.260478900E1,-5.619314575E-1,-1.100990479E1,2.893782349E0,1.139770795E1
1.261472900E1,-2.993475037E0,-1.448687439E1,3.178190918E0,1.513047653E1
1.262466900E1,-3.671115875E0,-1.970666977E1,1.543290710E0,2.010501608E1
1.263460900E1,-2.614313507E0,-2.392414948E1,-1.234931946E0,2.409822857E1
1.264454900E1,-3.829785919E0,-2.514920197E1,-2.406994629E-1,2.544027429E1
1.265449000E1,-5.048252106E0,-2.616962997E1,6.198609924E-1,2.665930625E1
1.266443000E1,-4.456831970E0,-2.760753983E1,2.122136993E0,2.804537523E1
1.267437000E1,-1.770368500E0,-2.759316971E1,3.052901459E0,2.781793354E1
1.268431000E1,1.363364868E0,-2.659354843E1,1.042731628E0,2.664888124E1
1.269425000E1,4.380191345E0,-2.630060760E1,-3.102149048E0,2.684271531E1
1.270419000E1,5.951324158E0,-2.582474716E1,-6.181246033E0,2.721293126E1
1.271413000E1,4.606071625E0,-2.496283951E1,-9.020242310E0,2.693926546E1
1.272407000E1,-7.679031372E-1,-2.283576279E1,-1.058763290E1,2.518252783E1
1.273401100E1,-3.687282257E0,-1.818957458E1,-8.624016266E0,2.046534462E1
1.274395100E1,-4.751718750E0,-1.311886917E1,-4.799918518E0,1.475543212E1
1.275389100E1,-8.217312012E0,-1.264166153E1,-5.557942200E-1,1.508790012E1
1.276383100E1,-8.098608856E0,-9.931547241E0,2.841091919E-1,1.281810493E1
1.277377100E1,-6.753206635E0,-6.615043945E0,1.037342834E0,9.510030831E0
1.278371100E1,-4.828509064E0,-3.258573761E0,1.053808594E0,5.919739461E0
1.279365100E1,-3.010689240E0,-7.379653931E-1,1.136436768E0,3.301564954E0
1.280359200E1,-1.926194458E0,1.015188904E0,2.043849792E0,2.986328109E0
1.281353200E1,-1.348994751E0,2.091001740E0,3.926933899E0,4.648966010E0
1.282347200E1,-3.474275208E-1,3.156336365E0,5.652695160E0,6.483527412E0
1.283341200E1,4.240681458E-1,4.633015594E0,6.329437866E0,7.855345377E0
1.284335200E1,7.135661316E-1,5.756579132E0,5.939199371E0,8.301895513E0
1.285329200E1,2.791694641E-1,6.447242889E0,5.560037842E0,8.518151047E0
1.286323200E1,-5.496569824E-1,8.233029327E0,5.159919891E0,9.731889230E0
1.287317300E1,-1.598825226E0,7.946974182E0,3.267106018E0,8.739829660E0
1.288311300E1,-2.593656464E0,6.709946594E0,3.180885315E-1,7.200806723E0
1.289305300E1,-2.079026642E0,4.399800568E0,5.851332092E-1,4.901324075E0
1.290299300E1,-6.707551575E-1,2.313738556E0,4.067641296E0,4.727473353E0
1.291293300E1,-2.347119141E-1,1.703008575E0,4.216880951E0,4.553834960E0
1.292287300E1,-2.381547546E-1,1.225800934E0,3.401526489E0,3.623491144E0
1.293281300E1,7.855664063E-1,1.035247192E0,3.858825531E0,4.071779194E0
1.294275300E1,-3.194357300E-1,2.576142883E-1,3.084036713E0,3.111219496E0
1.295269400E1,-5.735622711E0,-6.095773773E0,-9.164242859E0,1.241125187E1
1.296263400E1,-1.083896027E1,-1.080063995E1,-9.126521301E0,1.781657302E1
1.297257400E1,-1.632609970E1,-1.435948929E1,4.816983032E0,2.226970565E1
1.298251400E1,-2.749212982E1,-3.041854431E1,2.970722351E0,4.110876101E1
1.299245400E1,-2.285417450E1,-3.338133316E1,-4.417314148E-1,4.045765468E1
1.300239400E1,-1.136631363E1,-2.748419632E1,-1.923649750E0,2.980393533E1
1.301233400E1,-4.189338226E0,-2.227443008E1,-2.477348328E-1,2.266632222E1
1.302227400E1,-3.519780579E0,-1.977298187E1,1.035247192E0,2.011047996E1
1.303221500E1,-5.641468506E0,-1.863145569E1,1.532662811E0,1.952706745E1
1.304215500E1,-6.309080200E0,-1.941028610E1,3.209326172E-1,2.041241527E1
1.305209500E1,-3.689826965E0,-2.159768738E1,-4.945865021E0,2.246189003E1
1.306203500E1,-4.071533203E-2,-2.468711288E1,-9.710307312E0,2.652819761E1
1.307197500E1,2.118095398E-1,-2.590123810E1,-4.637057190E0,2.631389932E1
1.308191500E1,-4.552033997E-1,-2.653726547E1,-1.298849030E0,2.657293130E1
1.309185500E1,-7.185058594E-3,-2.631827087E1,-1.071322174E0,2.634006767E1
1.310179500E1,1.015039215E0,-2.593327148E1,-4.343068542E0,2.631400993E1
1.311173600E1,1.895059204E0,-2.308589264E1,-6.045478363E0,2.393945482E1
1.312167600E1,2.309547272E0,-1.861124771E1,-4.643194427E0,1.932024339E1
1.313161600E1,2.550246735E0,-1.455139023E1,-4.878804474E0,1.555793846E1
1.314155600E1,2.154619446E0,-1.058448944E1,-6.140530701E0,1.242497159E1
1.315149600E1,2.609673157E0,-6.777755585E0,-8.193810883E0,1.094928772E1
1.316143600E1,4.086053009E0,-3.385509796E0,-1.223450821E1,1.333569259E1
1.317137600E1,6.007008362E0,-1.428629150E0,-1.591879669E1,1.707434388E1
1.318131700E1,6.352639618E0,-1.347348175E0,-1.244212646E1,1.403488112E1
1.319125700E1,5.967041473E0,-1.302591248E0,-7.295379181E0,9.514456647E0
1.320119700E1,6.000871124E0,-8.101153564E-1,-5.034181366E0,7.874625271E0
1.321113700E1,6.001619568E0,-2.248324585E-1,-4.618346100E0,7.576219887E0
1.322107700E1,5.778882751E0,2.829116821E-1,-4.494104462E0,7.326151772E0
1.323101700E1,5.167404327E0,6.135740662E-1,-4.787943420E0,7.071275897E0
1.324095700E1,3.306623840E0,4.743635559E-1,-4.664749603E0,5.737479487E0
1.325089800E1,7.192543030E-1,-2.032323761E0,-2.431992645E0,3.249962284E0
1.326083800E1,-1.618135071E-1,-4.436174927E0,-6.297404480E-1,4.483570522E0
1.327077800E1,-1.094673615E0,-7.028184814E0,-7.918533325E-2,7.113365056E0
1.328071800E1,-1.348994751E0,-9.603130188E0,-3.535647583E-1,9.703860277E0
1.329065800E1,-1.224753113E0,-1.329101120E1,-1.216370544E0,1.340263244E1
1.330059800E1,-1.945204926E0,-2.094040421E1,-2.642005920E0,2.119586152E1
1.331053800E1,-4.355343018E0,-3.256642776E1,-3.963008881E0,3.309451117E1
1.332047800E1,-1.242521164E1,-4.541974915E1,-4.418062592E0,4.729544136E1
1.333041900E1,-2.196532288E1,-5.266243790E1,-4.214036865E0,5.721508438E1
1.334035900E1,-2.219255035E1,-4.738516205E1,-5.544470215E-1,5.232752894E1
1.335029900E1,-1.398107620E1,-3.609923126E1,6.481072540E0,3.925085083E1
1.336023900E1,-2.915936279E0,-2.700429428E1,7.285799103E0,2.812147689E1
1.337017900E1,1.358574829E0,-2.086600891E1,4.135599976E0,2.131523494E1
1.338011900E1,-1.047970734E0,-1.591789856E1,2.937790833E0,1.622061504E1
1.339005900E1,-6.603218536E0,-1.132589767E1,1.375190277E0,1.318216983E1
1.339999900E1,-6.846762085E0,-7.959248657E0,-6.724017334E-1,1.052045219E1
1.340994000E1,-5.585784302E0,-5.907165985E0,-2.217638397E0,8.426951780E0
1.341988000E1,-4.409979401E0,-4.443509674E0,-2.757116547E0,6.840642381E0
1.342982000E1,-3.636537781E0,-3.385060730E0,-3.041225739E0,5.825126365E0
1.343976000E1,-3.523672485E0,-2.588117981E0,-2.376458130E0,4.976160740E0
1.344970000E1,-3.294199677E0,-2.362537079E0,-3.255729675E-1,4.066857597E0
1.345964000E1,-2.369422760E0,-2.260748749E0,1.584754486E0,3.638213284E0
1.346958000E1,-1.748364258E0,-1.619781647E0,2.506687317E0,3.458894544E0
1.347952100E1,-8.878038025E-1,-5.060975647E-1,2.692750397E0,2.880144968E0
1.348946100E1,2.739303589E-2,5.882766724E-1,2.371668091E0,2.443691747E0
1.349940100E1,4.450245667E-1,1.444196777E0,2.595602417E0,3.003481830E0
1.350934100E1,3.135978699E-1,2.341131592E0,4.072730713E0,4.708118118E0
1.351928100E1,1.115180969E-1,4.043092346E0,6.014193420E0,7.247727541E0
1.352922100E1,3.260220337E-1,5.773793335E0,7.009773102E0,9.087348281E0
1.353916100E1,6.144721985E-1,6.245911560E0,6.270011444E0,8.871416505E0
1.354910100E1,2.201921082E-1,5.851631470E0,4.688400421E0,7.501411463E0
1.355904200E1,-4.297563171E-1,4.862039337E0,4.033811646E0,6.332120766E0
1.356898200E1,-7.207511902E-1,4.029320984E0,2.992427216E0,5.070456637E0
1.357892200E1,-7.216493225E-1,3.259172516E0,1.020428009E0,3.490595444E0
1.358886200E1,-2.087558899E0,1.621128845E0,-9.008117523E0,9.387872081E0
1.359880283E1,-3.821253662E0,-1.983824615E0,-1.900882095E1,1.949032616E1
1.360874283E1,-3.388054504E0,-2.484832764E0,-1.059137512E1,1.139432026E1
1.361868283E1,-3.486399994E0,-1.461261292E0,1.340013428E0,4.010723808E0
1.362862383E1,-2.736459503E0,-1.803449707E0,7.196434937E0,7.907548119E0
1.363856383E1,-3.165317688E0,-3.958967285E0,4.999154205E0,7.119283728E0
1.364850383E1,-6.907386017E0,-9.844578094E0,6.310876465E0,1.358141602E1
1.365844383E1,-1.461410980E1,-2.272828629E1,9.286089478E0,2.857234083E1
1.366838383E1,-2.118709122E1,-3.950554779E1,9.650431824E0,4.585533747E1
1.367832383E1,-1.919263870E1,-5.053281647E1,7.873926086E0,5.462528382E1
1.368826383E1,-9.689051514E0,-4.606610504E1,7.515870667E0,4.767024297E1
1.369820383E1,-4.920417938E0,-3.947321503E1,7.721842346E0,4.052125450E1
1.370814483E1,-4.459975433E0,-3.225657211E1,6.820566559E0,3.327007595E1
1.371808483E1,-4.329895935E0,-2.681823120E1,4.217030640E0,2.749088705E1
1.372802483E1,-2.461181946E0,-2.398537216E1,1.427731018E0,2.415354860E1
1.373796483E1,-9.642947388E-1,-2.175890213E1,1.094374237E0,2.180773581E1
1.374790483E1,-1.430724792E0,-2.002146515E1,9.208550720E0,2.208400884E1
1.375784483E1,7.421417084E0,-2.599748795E1,-9.347162476E0,2.860622760E1
1.376778483E1,1.971684860E1,-2.541998886E1,-2.893497940E1,4.326849877E1
1.377772483E1,1.343111984E1,-1.793749878E1,-1.250933670E1,2.566383345E1
1.378766583E1,1.069735474E1,-1.072714279E1,-1.414199158E1,2.072440389E1
1.379760583E1,8.741821289E0,-6.612948303E0,-1.604782837E1,1.943407626E1
1.380754583E1,6.761140137E0,-3.724554749E0,-1.315554291E1,1.525298768E1
1.381748583E1,5.554349670E0,-1.906585236E0,-6.945856018E0,9.095646395E0
1.382742583E1,6.708898773E0,-9.318122864E-1,-3.261268158E0,7.517543940E0
1.383736583E1,8.228538666E0,-3.722758484E-1,-2.384840698E0,8.575249445E0
1.384730583E1,9.937385101E0,1.957928467E-1,-2.029180298E0,1.014433488E1
1.385724683E1,1.250664230E1,1.504970398E0,-1.464255066E0,1.268168287E1
1.386718683E1,1.359682526E1,2.238145752E0,-1.132844238E0,1.382628980E1
1.387712683E1,1.226534409E1,2.461780701E0,-3.272644501E0,1.293094087E1
1.388706683E1,1.122515717E1,2.479893036E0,-6.121669922E0,1.302416468E1
1.389700683E1,9.541608124E0,1.428629150E0,-5.466482391E0,1.108898988E1
1.390694683E1,6.414461060E0,-4.752616882E-1,-2.611469421E0,6.941970678E0
1.391688683E1,3.857777710E0,-2.045047302E0,5.710624695E-1,4.403496301E0
1.392682783E1,3.260968781E0,-3.532653809E0,7.888595581E-2,4.808303580E0
1.393676783E1,4.064048767E0,-7.197482758E0,-1.384770355E0,8.380801833E0
1.394670783E1,5.662873993E0,-1.472757385E1,-2.770887909E0,1.602021826E1
1.395664783E1,5.359454956E0,-2.865536087E1,-5.297334137E0,2.962963403E1
1.396658783E1,1.902543640E0,-4.439587830E1,-4.710554352E0,4.468560176E1
1.397652783E1,-4.935237122E-1,-5.154276627E1,1.474284210E0,5.156620826E1
1.398646783E1,-5.782624969E0,-5.086931671E1,2.811154175E0,5.127405506E1
1.399640783E1,-7.883655853E0,-4.431384888E1,2.547402649E0,4.508168688E1
1.400634883E1,-6.580914917E0,-3.539120361E1,2.616558838E0,3.609282636E1
1.401628883E1,-4.612957306E0,-2.774555283E1,3.679049377E0,2.836600925E1
1.402622883E1,-2.826721802E0,-2.215767288E1,2.323019257E0,2.245772121E1
1.403616883E1,-2.364932098E0,-1.735176682E1,7.388635254E-1,1.752776753E1
1.404610883E1,-1.845512238E0,-1.282248550E1,2.830613708E-1,1.295770711E1
1.405604883E1,-1.662442932E0,-9.367370453E0,-4.674778748E-1,9.525223423E0
1.406598883E1,-2.885250092E0,-7.393425293E0,-1.671873322E0,8.110645231E0
1.407592883E1,-4.307292938E0,-7.235803070E0,-1.605561218E0,8.572481866E0
1.408586983E1,-4.950355682E0,-7.713459778E0,-4.418811035E-1,9.175987251E0
1.409580983E1,-4.418511658E0,-7.222480774E0,1.282233582E0,8.563386991E0
1.410574983E1,-3.845652924E0,-6.010002136E0,2.290985870E0,7.493850035E0
1.411568983E1,-3.469634857E0,-4.474644928E0,2.425705719E0,6.159940057E0
1.412562983E1,-2.611319733E0,-2.535726929E0,2.197729797E0,4.251931098E0
1.413556983E1,-1.869312744E0,-7.677534485E-1,1.779948578E0,2.692952364E0
1.414550983E1,-1.766027527E0,9.375004578E-1,1.530267792E0,2.517832371E0
1.415545083E1,-2.237846375E0,2.569556580E0,2.085463257E0,3.994963630E0
1.416539083E1,-2.751727753E0,4.199217682E0,3.293600922E0,6.004435177E0
1.417533083E1,-2.587519226E0,5.290298767E0,3.458108826E0,6.829424093E0
1.418527083E1,-2.468666382E0,4.995711365E0,2.505938873E0,6.109924335E0
1.419521083E1,-2.682870941E0,4.211192780E0,2.691552887E0,5.672424354E0
1.420515083E1,-2.948418732E0,3.790268097E0,3.706891479E0,6.066329179E0
1.421509083E1,-2.640359344E0,4.270918579E0,3.643124084E0,6.203595415E0
1.422503183E1,-2.665806427E0,5.984105988E0,2.313139801E0,6.947421400E0
1.423497183E1,-4.028273163E0,4.444407806E0,-1.735041962E0,6.244206598E0
1.424491183E1,-2.899470520E0,1.456022186E0,2.591111755E-1,3.254853070E0
1.425485183E1,-1.241667938E0,5.282514954E-1,1.232836304E0,1.827751149E0
1.426479183E1,-1.940863953E0,-3.055595856E0,1.316362610E0,3.851808593E0
1.427473183E1,-8.493038635E0,-1.150836823E1,2.791694641E0,1.457284473E1
1.428467183E1,-1.726150452E1,-2.280477722E1,6.982080688E0,2.944090442E1
1.429461183E1,-2.190260330E1,-3.429503311E1,1.050635193E1,4.202685758E1
1.430455283E1,-1.664164352E1,-3.946094055E1,7.039710846E0,4.340124027E1
1.431449283E1,-3.479364624E0,-3.642989365E1,5.493875427E0,3.700575356E1
1.432443283E1,4.248165894E-1,-3.421614716E1,7.937543793E0,3.512733689E1
1.433437283E1,-6.238127747E0,-3.218651779E1,8.572523346E0,3.388767212E1
1.434431283E1,-1.013347733E1,-2.855192596E1,5.930517426E0,3.087184601E1
1.435425283E1,-8.630303192E0,-2.601694748E1,2.943778381E0,2.756863291E1
1.436419283E1,-5.451962585E0,-2.569811050E1,2.491718445E0,2.638797909E1
1.437413283E1,-1.763782196E0,-2.546384766E1,2.353256378E0,2.563310907E1
1.438407383E1,4.547543335E-1,-2.501073990E1,2.505489807E0,2.514003562E1
1.439401383E1,1.062640228E0,-2.628818344E1,5.447322235E0,2.686765923E1
1.440395383E1,7.633226624E0,-3.072076584E1,-3.913012848E0,3.189581904E1
1.441389383E1,1.855361755E1,-3.063529358E1,-2.410662003E1,4.317275838E1
1.442383383E1,1.434766388E1,-2.222967316E1,-1.423315201E1,3.004324289E1
1.443377383E1,9.081764374E0,-1.475272156E1,-7.995473328E0,1.908006371E1
1.444371383E1,8.486901398E0,-8.349187775E0,-1.483280502E1,1.901968813E1
1.445365383E1,8.630901947E0,-4.545896759E0,-1.708352463E1,1.967242892E1
1.446359483E1,6.961273956E0,-3.210523682E0,-9.333840179E0,1.207838441E1
1.447353483E1,6.410569153E0,-1.850302277E0,-4.441563721E0,8.015391672E0
1.448347483E1,6.222260742E0,-5.065466309E-1,-3.622616730E0,7.217788457E0
1.449341483E1,6.758146362E0,3.902384949E-1,-3.008144531E0,7.407682624E0
1.450335483E1,7.804171143E0,9.758207703E-1,-2.820135498E-1,7.869996508E0
1.451329483E1,7.477250977E0,1.499132538E0,1.493594055E0,7.770939694E0
1.452323483E1,7.877368927E0,1.864073639E0,1.248703308E0,8.190663691E0
1.453317583E1,9.880952454E0,2.367027740E0,1.673519897E-1,1.016189197E1
1.454311583E1,1.170431076E1,2.627785492E0,-9.490264893E-2,1.199604741E1
1.455305583E1,1.199620377E1,2.933150482E0,-4.366419983E-1,1.235730281E1
1.456299583E1,1.023870850E1,2.558030548E0,-3.586541748E-1,1.055951253E1
1.457293583E1,7.139253845E0,1.628014526E0,-8.083190918E-2,7.322971430E0
1.458287583E1,4.349654846E0,8.678952026E-1,3.520678711E-1,4.449347272E0
1.459281583E1,2.608026581E0,-4.070036316E-1,1.606159973E-1,2.644475771E0
1.460275596E1,2.052232361E0,-2.223326569E0,-9.295669556E-1,3.165269881E0
1.461269596E1,3.096610565E0,-5.800886993E0,-2.298170929E0,6.965692824E0
1.462263596E1,6.767427063E0,-1.495974106E1,-3.620371399E0,1.681365548E1
1.463257596E1,1.083027832E1,-3.017245605E1,-3.167712708E0,3.221345118E1
1.464251596E1,9.968670044E0,-4.781461899E1,2.303260345E0,4.889700584E1
1.465245596E1,3.278182983E0,-5.461542664E1,2.631976776E0,5.477698980E1
1.466239596E1,-2.851719818E0,-5.522690506E1,1.505269775E0,5.532096515E1
1.467233596E1,-6.905589752E0,-5.220364197E1,2.061213684E0,5.269872870E1
1.468227696E1,-9.123377838E0,-4.655663498E1,4.428091736E0,4.764833974E1
1.469221696E1,-7.961194611E0,-3.560555786E1,3.920946350E0,3.669482512E1
1.470215696E1,-5.334007874E0,-2.389615768E1,-2.963836670E-2,2.448425761E1
1.471209696E1,-3.579805756E0,-1.601325027E1,-1.488205261E0,1.647585957E1
1.472203696E1,-1.932481384E0,-1.027747787E1,-2.265987854E0,1.070026807E1
1.473197696E1,-1.290915527E0,-6.976392517E0,-3.012784882E0,7.708008056E0
1.474191696E1,-2.746937714E0,-5.185366974E0,-7.067852325E0,9.186306872E0
1.475185696E1,-5.323529663E0,-4.112398224E0,-8.861123199E0,1.112525467E1
1.476179796E1,-4.626279602E0,-4.102668457E0,-4.472549286E0,7.631385755E0
1.477173796E1,-3.822002106E0,-4.034709778E0,-1.055305481E0,5.656876589E0
1.478167796E1,-2.924169159E0,-3.057392120E0,1.805695038E0,4.599885479E0
1.479161796E1,-2.582878876E0,-1.846110992E0,4.509223022E0,5.514751250E0
1.480155796E1,-2.777923279E0,-1.863624573E-1,5.838907928E0,6.468727426E0
1.481149796E1,-2.460433502E0,1.602417755E0,4.408781891E0,5.297058943E0
1.482143796E1,-2.300416260E0,2.722538452E0,3.695365448E0,5.134185075E0
1.483137896E1,-3.007096710E0,3.774101715E0,2.249222717E0,5.324047071E0
1.484131896E1,-3.619024200E0,5.672304382E0,-3.204835510E-1,6.736102944E0
1.485125896E1,-2.706072693E0,5.992638245E0,1.507215729E0,6.745831439E0
1.486119896E1,-2.610720978E0,5.297483826E0,2.880310364E0,6.570798026E0
1.487113896E1,-2.318079529E0,4.394561462E0,3.435655518E0,6.040644997E0
1.488107896E1,-1.690434723E0,2.900368652E0,2.833757172E0,4.393163732E0
1.489101896E1,-1.168919220E0,2.036065979E0,2.196232910E0,3.214867930E0
1.490095996E1,-7.057823181E-1,1.757495270E0,2.169288940E0,2.879710543E0
1.491089996E1,-4.459226990E-1,1.621577911E0,1.544039154E0,2.283072247E0
1.492083996E1,-2.466121674E0,-2.229014740E0,-9.541757812E0,1.010422708E1
1.493077996E1,-5.073100433E0,-7.981103210E0,-3.340558273E1,3.471840023E1
1.494071996E1,4.628375244E-1,-1.711840210E0,3.007994843E0,3.491797310E0
1.495065996E1,-1.969304810E0,-1.561103668E0,5.718558197E0,6.246368061E0
1.496059996E1,-4.011957092E0,-7.196884003E0,3.748205566E0,9.052070704E0
1.497053996E1,-8.655600586E0,-1.698577789E1,4.044589233E0,1.948832405E1
1.498048096E1,-1.289972488E1,-2.977114059E1,2.595303040E0,3.254933659E1
1.499042096E1,-1.292741730E1,-4.333698029E1,2.349963226E0,4.528503401E1
1.500036096E1,-7.277416534E0,-4.742976929E1,3.730242920E0,4.812960127E1
1.501030096E1,-1.304387512E0,-4.450994110E1,6.584956512E0,4.501330843E1
1.502024096E1,2.283651123E0,-3.723821274E1,1.129371460E1,3.898009158E1
1.503018096E1,1.193767548E0,-2.648487442E1,1.430485291E1,3.012478167E1
1.504012096E1,-2.232008514E0,-1.826307175E1,1.405831558E1,2.315508343E1
1.505006096E1,-4.032614136E0,-1.445334412E1,1.020502853E1,1.814672809E1
1.506000196E1,-3.833977203E0,-1.452534439E1,6.275549927E0,1.628089487E1
1.506994196E1,-2.794838104E0,-1.642698990E1,3.454067230E0,1.701727644E1
1.507988196E1,-1.112336884E0,-1.904803940E1,1.302291870E0,1.912488072E1
1.508982196E1,-1.123713226E0,-2.242875916E1,1.118399277E1,2.508771936E1
1.509976196E1,3.476520538E0,-2.994148636E1,4.977748718E0,3.055088841E1
1.510970196E1,1.287846909E1,-3.211242188E1,-2.236903336E1,4.119995459E1
1.511964196E1,1.809811478E1,-2.169019501E1,-4.649720856E1,5.440585191E1
1.512958196E1,1.717962479E1,-1.245245499E1,-4.718772263E1,5.173861527E1
1.513952296E1,6.497987366E0,-1.163051422E1,-1.062745010E1,1.704216525E1
1.514946296E1,2.427951050E-1,-9.992470551E0,-5.857918396E0,1.158549201E1
1.515940296E1,-3.779640198E-1,-5.076992340E0,-3.197051697E0,6.011642668E0
1.516934296E1,1.472038879E0,-1.837878113E0,2.935994568E0,3.763609773E0
1.517928296E1,2.826871490E0,-6.065386963E-1,3.397035828E0,4.460823246E0
1.518922296E1,3.696862335E0,1.636097717E-1,2.621797943E0,4.535127753E0
1.519916296E1,4.374503174E0,8.246351624E-1,2.070494385E0,4.909505898E0
1.520910396E1,5.708828430E0,1.995799713E0,8.454418945E-1,6.106448275E0
1.521904396E1,8.702303467E0,3.396586761E0,-1.875000916E0,9.527985920E0
1.522898396E1,9.259893951E0,3.863166504E0,-2.389780426E0,1.031410403E1
1.523892396E1,7.335944824E0,3.374582520E0,-2.716101837E0,8.519454374E0
1.524886396E1,5.992638245E0,3.139271851E0,-3.228935394E0,7.496183340E0
1.525880396E1,5.288951569E0,2.842738495E0,-2.762954407E0,6.609696506E0
1.526874396E1,4.333488464E0,1.976639557E0,-1.751058655E0,5.074685470E0
1.527868496E1,3.936813354E0,1.152004395E0,-1.252894592E0,4.288981041E0
1.528862496E1,3.457210693E0,6.526428223E-2,5.044509888E-2,3.458194603E0
1.529856496E1,2.678080902E0,-1.320703583E0,-9.624984741E-2,2.987580845E0
1.530850496E1,3.012485504E0,-3.678300934E0,-4.601431274E-1,4.776682779E0
1.531844496E1,5.401218109E0,-1.148262177E1,-1.105002136E0,1.273753467E1
1.532838496E1,7.153474274E0,-2.707135483E1,-3.039429474E0,2.816502402E1
1.533832496E1,4.081113281E0,-4.384098221E1,-5.372777252E0,4.435711828E1
1.534826496E1,-8.181985474E-1,-4.975757858E1,-6.942562866E-1,4.976914774E1
1.535820596E1,-6.525081024E0,-4.690451157E1,2.308948517E0,4.741245755E1
1.536814596E1,-1.125389740E1,-4.399426346E1,3.376827850E0,4.553623162E1
1.537808596E1,-1.218121902E1,-3.844575165E1,3.564836884E0,4.048661481E1
1.538802596E1,-1.006297394E1,-3.069831253E1,3.261866913E0,3.246982618E1
1.539796596E1,-6.791976013E0,-2.382849838E1,2.763852539E0,2.493124855E1
1.540790596E1,-4.277205505E0,-1.802731201E1,5.375321960E-1,1.853557137E1
1.541784596E1,-3.188070374E0,-1.371118744E1,-9.903405762E-1,1.411174079E1
1.542778696E1,-3.807482300E0,-1.057505905E1,-3.387156372E0,1.173889363E1
1.543772696E1,-5.526806946E0,-8.966204681E0,-6.345753937E0,1.229662614E1
1.544766696E1,-6.117778015E0,-8.427924042E0,-5.588478699E0,1.181897651E1
1.545760696E1,-5.916296997E0,-8.100255432E0,-3.373983765E0,1.058302767E1
1.546754696E1,-5.583389282E0,-7.400909729E0,-9.812095642E-1,9.322578662E0
1.547748696E1,-4.573589172E0,-5.935307465E0,9.455836487E-1,7.552464568E0
1.548742696E1,-3.799249420E0,-3.872896271E0,3.354673920E0,6.378672181E0
1.549736696E1,-3.095712433E0,-1.107846222E0,5.973178711E0,6.818329900E0
1.550730796E1,-2.210453339E0,1.338965607E0,4.331841888E0,5.044183482E0
1.551724796E1,-1.880539398E0,2.497705994E0,2.684068451E0,4.120580919E0
1.552718796E1,-2.149979095E0,3.196902008E0,8.734336853E-1,3.950377066E0
1.553712796E1,-2.476599884E0,3.923940125E0,-2.294428711E0,5.176413449E0
1.554706796E1,-2.534379730E0,4.992118835E0,-3.385958862E0,6.542862409E0
1.555700796E1,-1.212778015E0,6.391408997E0,-6.653663635E-1,6.539392317E0
1.556694796E1,-8.072712708E-1,5.832621002E0,1.618584137E0,6.106633219E0
1.557688896E1,-6.746470642E-1,3.869154053E0,3.385659485E0,5.185382521E0
1.558682896E1,-4.920268250E-1,2.281106415E0,3.265010376E0,4.013206901E0
1.559676958E1,-1.776805115E-1,1.503024445E0,2.109712830E0,2.596447779E0
1.560670958E1,2.200424194E-1,9.159452820E-1,1.078058167E0,1.431636768E0
1.561664958E1,-8.324189758E-1,-1.583257599E0,-9.999655609E0,1.015838266E1
1.562658958E1,-2.400857391E0,-5.911357269E0,-1.502874756E1,1.632701792E1
1.563652958E1,3.022215271E-1,-1.296603699E0,4.789440308E0,4.971041889E0
1.564646958E1,-2.018103333E0,-3.255280609E0,3.931125183E0,5.488473204E0
1.565641058E1,-2.735711060E0,-6.396648102E0,4.154909821E0,8.103363348E0
1.566635058E1,-5.992189178E0,-1.626367950E1,1.584754486E0,1.740474214E1
1.567629058E1,-1.009066635E1,-3.077450409E1,-2.249073029E0,3.246459578E1
1.568623058E1,-1.198213303E1,-4.333114243E1,-4.604275360E0,4.519246361E1
1.569617058E1,-9.371112671E0,-4.458448608E1,-3.743116150E0,4.571219827E1
1.570611058E1,-3.117566986E0,-3.938908997E1,-1.640738068E0,3.954632288E1
1.571605058E1,2.273771667E0,-3.157908096E1,9.949809265E-1,3.167646412E1
1.572599158E1,7.409591675E-2,-2.298455338E1,5.026547241E0,2.352788476E1
1.573593158E1,-2.741399231E0,-1.697035995E1,8.415649567E0,1.913978956E1
1.574587158E1,-2.437082062E0,-1.256337433E1,9.770482178E0,1.610093368E1
1.575581158E1,-2.530487823E0,-1.142469223E1,9.156758423E0,1.485843821E1
1.576575158E1,-2.568359070E0,-1.316242859E1,7.467371521E0,1.534951570E1
1.577569158E1,-1.598974915E0,-1.593466370E1,5.062023468E0,1.679566341E1
1.578563158E1,-1.643582153E-1,-1.881856659E1,3.493734741E0,1.914083709E1
1.579557158E1,5.161267090E-1,-2.090088638E1,4.417314148E0,2.136881145E1
1.580551258E1,1.774859161E0,-2.246932480E1,4.475842438E0,2.297942226E1
1.581545258E1,4.179009705E0,-2.379332153E1,2.426454163E-1,2.415874890E1
1.582539258E1,5.768254852E0,-2.290147614E1,-7.769742737E0,2.486200465E1
1.583533258E1,6.733447723E0,-1.931194061E1,-1.774889099E1,2.707976181E1
1.584527258E1,9.911339264E0,-1.506901382E1,-2.257994476E1,2.889919946E1
1.585521258E1,9.291029205E0,-7.192842407E0,-3.728805908E1,3.909551836E1
1.586515258E1,4.890180817E0,-6.247707825E0,-2.022339523E1,2.172402901E1
1.587509358E1,4.551135864E0,-6.113886108E0,-7.448810120E0,1.065726106E1
1.588503358E1,4.852159882E0,-4.635560303E0,-3.899391174E-1,6.721899088E0
1.589497358E1,5.216801605E0,-2.589465179E0,2.825524292E0,6.473324990E0
1.590491358E1,5.485642548E0,-7.445516968E-1,2.945874023E0,6.270949302E0
1.591485358E1,5.832621002E0,5.273533630E-1,1.627415771E0,6.078326367E0
1.592479358E1,6.166726227E0,1.632654877E0,6.855743408E-2,6.379559109E0
1.593473358E1,6.693480835E0,2.493365021E0,-1.068478088E0,7.222271128E0
1.594467358E1,7.173083496E0,3.168610840E0,-1.556912384E0,7.994823179E0
1.595461458E1,7.069947968E0,3.614234161E0,-1.647474060E0,8.109317087E0
1.596455458E1,7.159012756E0,3.872147827E0,-2.340832214E0,8.469031107E0
1.597449458E1,6.100414124E0,3.710933075E0,-3.849095764E0,8.111819461E0
1.598443458E1,3.998185730E0,2.759960632E0,-4.795876923E0,6.826661503E0
1.599437458E1,2.529290314E0,8.164022827E-1,-3.042423248E0,4.039821952E0
1.600431458E1,2.019899597E0,1.077758789E-1,-1.129251709E0,2.316639688E0
1.601425458E1,1.615590363E0,-6.134243774E-1,-4.052073669E-1,1.774997098E0
1.602419558E1,1.484463043E0,-1.485959930E0,-4.242178345E-1,2.142817821E0
1.603413558E1,2.104623413E0,-2.975662079E0,-6.524931335E-1,3.702668201E0
1.604407558E1,4.413122864E0,-9.226962433E0,-7.581733704E-1,1.025608678E1
1.605401558E1,9.923014984E0,-2.640104874E1,-2.929408264E-1,2.820580463E1
1.606395558E1,1.254002289E1,-4.857428925E1,3.101250916E0,5.026262535E1
1.607389558E1,7.830965424E0,-6.258186035E1,6.525679779E0,6.340660660E1
1.608383558E1,9.325607300E-2,-5.876105576E1,4.180356903E0,5.890964059E1
1.609377558E1,-4.994214478E0,-4.808390900E1,2.505639496E0,4.840746546E1
1.610371658E1,-6.365213470E0,-3.569477234E1,4.860093384E0,3.658214349E1
1.611365658E1,-5.756878510E0,-2.668291260E1,4.883744202E0,2.773031612E1
1.612359658E1,-5.042414246E0,-2.118903717E1,1.434616699E0,2.182794912E1
1.613353658E1,-4.371958466E0,-1.708681778E1,-8.381071472E-1,1.765717379E1
1.614347658E1,-3.820205841E0,-1.341195969E1,-1.698817291E0,1.404850937E1
1.615341658E1,-4.532574463E0,-1.029858398E1,-7.956105194E0,1.378059045E1
1.616335658E1,-5.459297333E0,-8.419691162E0,-1.004082001E1,1.419553426E1
1.617329758E1,-4.890330505E0,-7.496411133E0,-6.471193085E0,1.104481110E1
1.618323758E1,-4.083208923E0,-6.968758392E0,-3.535647583E0,8.816858424E0
1.619317758E1,-3.653003540E0,-6.602619781E0,-1.427731018E0,7.679676992E0
1.620311758E1,-3.484154663E0,-5.866151276E0,-6.286926270E-2,6.823123702E0
1.621305758E1,-3.546275482E0,-4.225113831E0,5.563929749E-1,5.544116685E0
1.622299758E1,-3.563789062E0,-1.803449707E0,5.779481506E-1,4.035721422E0
1.623293758E1,-3.391197968E0,-1.017883301E-2,6.962022400E-1,3.461939460E0
1.624287858E1,-2.877915344E0,8.643026733E-1,2.095642090E-3,3.004899371E0
1.625281858E1,-2.609673157E0,1.360520782E0,-1.595232697E0,3.347563015E0
1.626275858E1,-2.665357361E0,2.027833099E0,-5.296585693E0,6.266582557E0
1.627269858E1,-1.899849243E0,2.846031647E0,-7.401508484E0,8.154241296E0
1.628263858E1,6.547384644E-1,2.996917877E0,-4.181554413E0,5.186096463E0
1.629257858E1,2.315235443E0,2.855611725E0,-4.806504822E-1,3.707540744E0
1.630251858E1,3.023263092E0,2.688708801E0,1.719923401E0,4.396295173E0
1.631245858E1,3.008892975E0,1.882335663E0,3.725602570E0,5.145555265E0
1.632239958E1,1.826052704E0,7.316784668E-1,4.508324890E0,4.918822539E0
1.633233958E1,4.204756165E-1,-2.071691895E-1,4.328249359E0,4.353557319E0
1.634227958E1,-5.927673340E-2,-7.523355103E-1,3.497626648E0,3.578116071E0
1.635221958E1,-1.719923401E-1,-8.045768738E-1,2.823278961E0,2.940719198E0
